# Min values: 183.7, 260.4, 197.3, 264.8, 241.0
# Max values: 325.8, 382.5, 285.0, 378.7, 439.8
# Starting CSV logging...
time_ms,raw0,raw1,raw2,raw3,raw4,gyroX_dps,gyroY_dps,gyroZ_dps,norm0,norm1,norm2,norm3,norm4,gestureID,Button
53,171,270,198,305,260,3.405,1.565,0.802,0.0000,0.0789,0.0075,0.3527,0.0954,0,0
100,171,270,198,304,260,5.611,0.473,-1.389,0.0000,0.0789,0.0075,0.3439,0.0954,0,0
153,171,271,198,304,260,8.916,2.328,-0.099,0.0000,0.0870,0.0075,0.3439,0.0954,0,0
201,171,271,198,304,260,2.374,-1.542,0.008,0.0000,0.0870,0.0075,0.3439,0.0954,0,0
254,171,271,198,304,260,6.664,2.023,-2.985,0.0000,0.0870,0.0075,0.3439,0.0954,0,0
301,171,271,198,304,260,-0.573,-1.794,-2.344,0.0000,0.0870,0.0075,0.3439,0.0954,0,0
350,172,271,198,304,260,10.962,2.351,-3.618,0.0000,0.0870,0.0075,0.3439,0.0954,0,0
401,171,271,198,304,260,0.183,2.260,-1.267,0.0000,0.0870,0.0075,0.3439,0.0954,0,0
450,171,271,198,304,260,11.130,4.061,-1.924,0.0000,0.0870,0.0075,0.3439,0.0954,0,0
502,171,270,198,304,260,0.794,8.519,2.107,0.0000,0.0789,0.0075,0.3439,0.0954,0,0
551,171,270,198,304,260,1.122,3.962,-1.397,0.0000,0.0789,0.0075,0.3439,0.0954,0,0
604,171,270,198,305,260,6.313,0.443,0.832,0.0000,0.0789,0.0075,0.3527,0.0954,0,0
651,171,270,198,304,259,3.115,1.176,0.466,0.0000,0.0789,0.0075,0.3439,0.0904,0,0
704,171,270,198,304,259,3.458,5.389,0.206,0.0000,0.0789,0.0075,0.3439,0.0904,0,0
751,171,270,198,304,259,4.237,2.947,-0.366,0.0000,0.0789,0.0075,0.3439,0.0904,0,0
801,171,270,198,304,259,2.221,3.794,-0.008,0.0000,0.0789,0.0075,0.3439,0.0904,0,0
852,171,270,198,304,259,5.992,5.748,-1.305,0.0000,0.0789,0.0075,0.3439,0.0904,0,0
901,170,270,198,304,259,3.832,4.809,1.710,0.0000,0.0789,0.0075,0.3439,0.0904,0,0
952,171,270,198,304,259,9.305,0.519,-1.160,0.0000,0.0789,0.0075,0.3439,0.0904,0,0
1001,171,270,198,304,259,6.832,-2.977,-0.366,0.0000,0.0789,0.0075,0.3439,0.0904,0,0
1053,171,270,198,304,259,10.679,-3.275,-0.710,0.0000,0.0789,0.0075,0.3439,0.0904,0,0
1102,171,270,198,304,259,6.214,0.382,-1.084,0.0000,0.0789,0.0075,0.3439,0.0904,0,0
1149,170,270,198,304,259,5.405,0.733,-1.321,0.0000,0.0789,0.0075,0.3439,0.0904,0,0
1202,171,270,198,304,259,10.382,-0.038,-3.076,0.0000,0.0789,0.0075,0.3439,0.0904,0,0
1249,171,270,198,304,259,3.427,-3.649,0.313,0.0000,0.0789,0.0075,0.3439,0.0904,0,0
1302,171,270,198,304,258,15.092,3.626,0.313,0.0000,0.0789,0.0075,0.3439,0.0853,0,0
1352,171,270,198,303,259,7.267,3.527,2.511,0.0000,0.0789,0.0075,0.3351,0.0904,0,0
1403,171,270,198,303,259,6.710,4.901,1.649,0.0000,0.0789,0.0075,0.3351,0.0904,0,0
1452,172,270,198,304,259,5.000,5.069,2.198,0.0000,0.0789,0.0075,0.3439,0.0904,0,0
1503,172,270,198,304,259,6.832,4.366,4.397,0.0000,0.0789,0.0075,0.3439,0.0904,0,0
1552,172,270,198,304,259,1.550,3.168,6.557,0.0000,0.0789,0.0075,0.3439,0.0904,0,0
1599,171,270,198,303,259,6.756,5.534,6.557,0.0000,0.0789,0.0075,0.3351,0.0904,0,0
1653,171,270,198,303,259,-4.672,4.580,5.115,0.0000,0.0789,0.0075,0.3351,0.0904,0,0
1702,171,270,198,303,259,4.740,2.817,5.176,0.0000,0.0789,0.0075,0.3351,0.0904,0,0
1753,170,270,198,303,259,5.611,5.504,4.473,0.0000,0.0789,0.0075,0.3351,0.0904,0,0
1802,170,270,198,303,260,11.550,4.328,3.779,0.0000,0.0789,0.0075,0.3351,0.0954,0,0
1849,170,270,198,304,259,6.786,6.176,4.893,0.0000,0.0789,0.0075,0.3439,0.0904,0,0
1902,170,270,198,304,260,8.267,4.779,2.153,0.0000,0.0789,0.0075,0.3439,0.0954,0,0
1950,170,270,198,304,260,5.244,0.275,2.267,0.0000,0.0789,0.0075,0.3439,0.0954,0,0
# Gesture ID set to 1
2003,170,270,199,304,260,12.412,3.641,2.000,0.0000,0.0789,0.0189,0.3439,0.0954,1,0
2052,170,270,198,304,260,7.588,6.351,4.534,0.0000,0.0789,0.0075,0.3439,0.0954,1,0
2103,170,270,198,304,260,7.634,6.542,3.725,0.0000,0.0789,0.0075,0.3439,0.0954,1,0
2152,170,270,198,304,261,8.092,1.947,2.565,0.0000,0.0789,0.0075,0.3439,0.1004,1,0
2199,170,270,198,304,261,7.153,0.420,1.420,0.0000,0.0789,0.0075,0.3439,0.1004,1,0
2253,170,270,198,304,261,3.137,-1.916,3.015,0.0000,0.0789,0.0075,0.3439,0.1004,1,0
2300,170,270,198,303,260,1.427,-0.061,2.763,0.0000,0.0789,0.0075,0.3351,0.0954,1,0
2353,170,270,198,303,260,3.588,0.336,2.771,0.0000,0.0789,0.0075,0.3351,0.0954,1,0
2400,170,270,198,303,260,0.321,2.366,5.771,0.0000,0.0789,0.0075,0.3351,0.0954,1,0
2453,170,270,198,303,260,4.916,0.053,5.641,0.0000,0.0789,0.0075,0.3351,0.0954,1,0
2503,170,270,198,303,259,16.802,0.137,5.023,0.0000,0.0789,0.0075,0.3351,0.0904,1,0
2550,170,270,198,303,259,2.420,2.183,5.336,0.0000,0.0789,0.0075,0.3351,0.0904,1,0
2603,169,270,198,303,259,2.985,5.573,5.519,0.0000,0.0789,0.0075,0.3351,0.0904,1,0
2650,169,270,198,303,259,5.405,4.366,5.382,0.0000,0.0789,0.0075,0.3351,0.0904,1,0
2703,168,270,198,303,260,14.870,13.099,5.313,0.0000,0.0789,0.0075,0.3351,0.0954,1,0
2750,168,271,198,303,259,-2.099,-2.153,4.550,0.0000,0.0870,0.0075,0.3351,0.0904,1,0
2804,168,270,198,303,259,-20.656,-34.634,-9.802,0.0000,0.0789,0.0075,0.3351,0.0904,1,0
2851,169,271,198,303,260,-23.931,-7.763,-10.802,0.0000,0.0870,0.0075,0.3351,0.0954,1,0
2900,170,271,198,303,260,-5.656,-0.244,-7.519,0.0000,0.0870,0.0075,0.3351,0.0954,1,0
2900,170,271,198,303,260,-5.656,-0.244,-7.519,0.0000,0.0870,0.0075,0.3351,0.0954,1,0
2951,170,272,198,303,261,39.321,83.145,28.168,0.0000,0.0952,0.0075,0.3351,0.1004,1,0
3000,169,272,198,303,261,-0.664,14.908,-2.588,0.0000,0.0952,0.0075,0.3351,0.1004,1,0
3053,169,271,198,304,261,2.885,1.679,3.908,0.0000,0.0870,0.0075,0.3439,0.1004,1,0
3101,169,271,198,304,262,15.771,1.687,0.275,0.0000,0.0870,0.0075,0.3439,0.1054,1,0
3154,169,271,198,304,262,2.359,-0.427,0.626,0.0000,0.0870,0.0075,0.3439,0.1054,1,0
3201,169,271,198,304,262,4.863,-2.183,1.710,0.0000,0.0870,0.0075,0.3439,0.1054,1,0
3254,169,271,198,304,263,2.046,6.244,1.000,0.0000,0.0870,0.0075,0.3439,0.1105,1,0
3301,169,271,198,304,262,1.687,4.473,4.824,0.0000,0.0870,0.0075,0.3439,0.1054,1,0
3350,169,271,198,304,263,-1.527,8.435,8.420,0.0000,0.0870,0.0075,0.3439,0.1105,1,0
3402,168,271,198,304,262,-2.397,13.076,11.466,0.0000,0.0870,0.0075,0.3439,0.1054,1,0
3451,168,271,198,304,262,-7.473,11.450,10.099,0.0000,0.0870,0.0075,0.3439,0.1054,1,0
3502,168,271,198,304,262,-1.160,6.252,4.939,0.0000,0.0870,0.0075,0.3439,0.1054,1,0
3551,168,271,198,304,262,-0.160,6.221,0.634,0.0000,0.0870,0.0075,0.3439,0.1054,1,0
3602,168,271,198,303,261,4.137,2.511,-1.221,0.0000,0.0870,0.0075,0.3351,0.1004,1,0
3651,168,270,198,303,261,-2.519,2.344,0.412,0.0000,0.0789,0.0075,0.3351,0.1004,1,0
3703,167,269,199,303,260,1.527,4.695,-1.053,0.0000,0.0707,0.0189,0.3351,0.0954,1,0
3752,167,269,199,303,260,2.420,4.229,-1.061,0.0000,0.0707,0.0189,0.3351,0.0954,1,0
3801,167,269,198,302,259,10.191,1.962,0.489,0.0000,0.0707,0.0075,0.3264,0.0904,1,0
3852,167,269,198,303,260,8.206,-0.611,1.450,0.0000,0.0707,0.0075,0.3351,0.0954,1,0
3901,167,269,198,302,260,4.893,-1.214,0.489,0.0000,0.0707,0.0075,0.3264,0.0954,1,0
3953,167,269,198,302,259,0.679,0.504,1.397,0.0000,0.0707,0.0075,0.3264,0.0904,1,0
4002,168,269,198,302,259,5.740,3.870,-0.756,0.0000,0.0707,0.0075,0.3264,0.0904,1,0
4053,167,269,198,303,259,5.382,7.786,0.931,0.0000,0.0707,0.0075,0.3351,0.0904,1,0
4102,167,269,198,302,259,4.809,5.115,1.664,0.0000,0.0707,0.0075,0.3264,0.0904,1,0
4153,167,269,198,303,259,3.908,5.954,1.855,0.0000,0.0707,0.0075,0.3351,0.0904,1,0
4202,167,269,198,302,259,7.885,2.267,0.252,0.0000,0.0707,0.0075,0.3264,0.0904,1,0
4254,167,270,198,302,259,3.130,3.649,0.023,0.0000,0.0789,0.0075,0.3264,0.0904,1,0
4303,167,270,198,303,259,10.939,2.847,-1.061,0.0000,0.0789,0.0075,0.3351,0.0904,1,0
4350,167,270,198,303,259,4.084,1.382,0.550,0.0000,0.0789,0.0075,0.3351,0.0904,1,0
4403,167,270,198,303,259,7.389,2.847,-1.695,0.0000,0.0789,0.0075,0.3351,0.0904,1,0
4450,167,270,199,303,259,3.931,5.328,-2.908,0.0000,0.0789,0.0189,0.3351,0.0904,1,0
4503,167,270,198,303,259,13.542,-2.420,0.176,0.0000,0.0789,0.0075,0.3351,0.0904,1,0
4551,167,269,199,303,259,4.824,0.656,-2.076,0.0000,0.0707,0.0189,0.3351,0.0904,1,0
4604,167,269,198,303,258,10.611,-1.802,-3.137,0.0000,0.0707,0.0075,0.3351,0.0853,1,0
4651,167,268,198,302,258,4.038,-0.107,-1.855,0.0000,0.0625,0.0075,0.3264,0.0853,1,0
4700,167,268,198,302,259,5.962,-1.847,-3.191,0.0000,0.0625,0.0075,0.3264,0.0904,1,0
4751,167,268,198,301,259,3.802,-0.519,-2.641,0.0000,0.0625,0.0075,0.3176,0.0904,1,0
4800,167,268,198,301,258,6.366,-1.473,-2.260,0.0000,0.0625,0.0075,0.3176,0.0853,1,0
4854,244,318,266,343,312,7.863,-5.580,-5.313,0.4246,0.4717,0.7829,0.6864,0.3571,1,1
4901,318,367,333,384,363,8.237,-4.344,-3.611,0.9453,0.8728,1.0000,1.0000,0.6137,1,1
4950,325,371,339,387,368,13.656,-8.351,-0.916,0.9945,0.9055,1.0000,1.0000,0.6388,1,1
5003,327,371,340,387,368,6.427,-9.298,0.969,1.0000,0.9055,1.0000,1.0000,0.6388,1,1
5050,329,370,340,386,367,30.664,-14.046,-2.855,1.0000,0.8973,1.0000,1.0000,0.6338,1,1
5103,331,371,340,386,367,41.725,-43.489,-18.695,1.0000,0.9055,1.0000,1.0000,0.6338,1,1
5151,333,371,341,385,367,47.527,-42.336,-20.855,1.0000,0.9055,1.0000,1.0000,0.6338,1,1
5200,337,373,342,385,366,85.649,-50.901,-27.168,1.0000,0.9219,1.0000,1.0000,0.6288,1,1
5253,340,374,342,384,363,77.099,-52.542,-26.771,1.0000,0.9301,1.0000,1.0000,0.6137,1,1
5300,342,374,342,383,360,63.954,-29.840,-23.237,1.0000,0.9301,1.0000,1.0000,0.5986,1,1
5353,343,374,343,382,357,8.053,-28.649,1.733,1.0000,0.9301,1.0000,1.0000,0.5835,1,1
5403,342,375,343,382,356,62.412,-8.435,-7.885,1.0000,0.9382,1.0000,1.0000,0.5785,1,1
5450,341,378,343,380,353,60.053,-16.405,-8.443,1.0000,0.9628,1.0000,1.0000,0.5634,1,1
5503,343,382,343,379,350,50.710,-2.847,-7.771,1.0000,0.9955,1.0000,1.0000,0.5483,1,1
5550,347,394,348,380,348,45.542,-7.076,-9.901,1.0000,1.0000,1.0000,1.0000,0.5382,1,1
5603,365,401,354,380,345,26.443,1.328,5.305,1.0000,1.0000,1.0000,1.0000,0.5231,1,1
5652,383,403,356,378,342,13.160,13.099,4.008,1.0000,1.0000,1.0000,0.9937,0.5080,1,1
5699,395,402,354,375,341,2.351,-0.359,18.603,1.0000,1.0000,1.0000,0.9673,0.5030,1,1
5753,402,400,350,371,341,22.336,13.130,13.099,1.0000,1.0000,1.0000,0.9322,0.5030,1,1
5800,405,398,346,369,341,-3.176,17.344,21.321,1.0000,1.0000,1.0000,0.9147,0.5030,1,1
5853,406,396,342,366,342,8.626,21.748,6.725,1.0000,1.0000,1.0000,0.8883,0.5080,1,1
5902,407,394,339,363,345,-10.443,11.573,19.443,1.0000,1.0000,1.0000,0.8620,0.5231,1,1
5949,407,394,337,362,344,32.786,5.435,-0.939,1.0000,1.0000,1.0000,0.8532,0.5181,1,1
6003,407,393,336,361,343,14.374,1.779,15.656,1.0000,1.0000,1.0000,0.8444,0.5130,1,1
6052,408,392,335,360,343,8.809,-1.160,6.618,1.0000,1.0000,1.0000,0.8356,0.5130,1,1
6103,408,391,334,359,342,13.550,-0.145,1.618,1.0000,1.0000,1.0000,0.8269,0.5080,1,1
6152,408,391,334,359,341,0.489,-0.947,1.855,1.0000,1.0000,1.0000,0.8269,0.5030,1,1
6199,408,391,334,359,341,6.870,5.580,-4.313,1.0000,1.0000,1.0000,0.8269,0.5030,1,1
6252,407,390,334,358,340,3.305,4.221,-1.298,1.0000,1.0000,1.0000,0.8181,0.4979,1,1
6302,407,390,333,358,341,1.466,2.603,-8.939,1.0000,1.0000,1.0000,0.8181,0.5030,1,1
6353,406,390,333,358,340,5.481,2.237,0.527,1.0000,1.0000,1.0000,0.8181,0.4979,1,1
6402,406,390,333,358,340,6.863,2.740,-2.641,1.0000,1.0000,1.0000,0.8181,0.4979,1,1
6451,405,389,333,358,340,2.565,2.443,1.527,1.0000,1.0000,1.0000,0.8181,0.4979,1,1
6502,404,389,333,358,340,1.794,1.603,-1.748,1.0000,1.0000,1.0000,0.8181,0.4979,1,1
6551,404,389,333,358,340,9.107,0.435,0.985,1.0000,1.0000,1.0000,0.8181,0.4979,1,1
6603,404,388,333,358,339,3.084,0.771,0.061,1.0000,1.0000,1.0000,0.8181,0.4929,1,1
6652,403,388,332,358,340,8.534,2.489,0.260,1.0000,1.0000,1.0000,0.8181,0.4979,1,1
6701,404,388,332,358,339,1.687,-0.885,-1.305,1.0000,1.0000,1.0000,0.8181,0.4929,1,1
6752,403,388,333,358,339,7.130,2.237,-0.878,1.0000,1.0000,1.0000,0.8181,0.4929,1,1
6801,404,388,332,358,339,-8.092,-0.878,-0.626,1.0000,1.0000,1.0000,0.8181,0.4929,1,1
6852,403,388,333,358,339,1.672,1.183,-1.893,1.0000,1.0000,1.0000,0.8181,0.4929,1,1
6902,400,387,333,358,338,-14.588,-8.000,-8.023,1.0000,1.0000,1.0000,0.8181,0.4879,1,1
6951,326,302,198,252,206,-1.214,0.099,-7.397,1.0000,0.3408,0.0075,0.0000,0.0000,1,0
7002,311,291,180,239,187,-6.191,-2.214,-5.397,0.8960,0.2507,0.0000,0.0000,0.0000,1,0
7049,297,292,181,242,186,-4.649,-1.809,-4.458,0.7975,0.2589,0.0000,0.0000,0.0000,1,0
7102,282,294,182,245,186,13.031,-10.015,-4.420,0.6920,0.2753,0.0000,0.0000,0.0000,1,0
7154,260,299,179,245,185,-16.817,6.809,-0.183,0.5372,0.3162,0.0000,0.0000,0.0000,1,0
7201,240,306,171,243,185,-14.664,0.794,-10.779,0.3965,0.3735,0.0000,0.0000,0.0000,1,0
7252,224,297,162,241,185,-51.710,38.183,3.191,0.2839,0.2998,0.0000,0.0000,0.0000,1,0
7301,214,270,160,237,184,-12.305,35.969,-8.824,0.2135,0.0789,0.0000,0.0000,0.0000,1,0
7352,205,250,159,237,184,-36.366,18.557,21.611,0.1502,0.0000,0.0000,0.0000,0.0000,1,0
7403,197,238,159,236,184,21.977,16.427,-13.252,0.0939,0.0000,0.0000,0.0000,0.0000,1,0
7451,193,232,159,236,186,6.000,8.618,-3.794,0.0658,0.0000,0.0000,0.0000,0.0000,1,0
7502,190,229,159,237,187,2.092,8.969,-10.947,0.0446,0.0000,0.0000,0.0000,0.0000,1,0
7553,187,226,159,238,188,2.038,4.985,-0.168,0.0235,0.0000,0.0000,0.0000,0.0000,1,0
7600,184,222,159,238,188,0.183,9.130,-1.779,0.0024,0.0000,0.0000,0.0000,0.0000,1,0
7651,182,215,159,237,186,-5.061,15.931,-4.290,0.0000,0.0000,0.0000,0.0000,0.0000,1,0
7702,179,206,160,236,185,-12.489,16.908,1.252,0.0000,0.0000,0.0000,0.0000,0.0000,1,0
7750,177,201,160,235,184,-4.031,8.305,-0.618,0.0000,0.0000,0.0000,0.0000,0.0000,1,0
7801,176,198,160,234,183,-20.656,10.031,4.710,0.0000,0.0000,0.0000,0.0000,0.0000,1,0
7852,174,196,160,233,183,-12.198,2.550,4.328,0.0000,0.0000,0.0000,0.0000,0.0000,1,0
7903,173,196,161,232,183,-27.229,5.534,12.878,0.0000,0.0000,0.0000,0.0000,0.0000,1,0
7950,172,196,162,232,182,19.260,10.878,-7.733,0.0000,0.0000,0.0000,0.0000,0.0000,1,0
8001,171,199,167,232,182,6.557,-3.496,1.443,0.0000,0.0000,0.0000,0.0000,0.0000,1,0
8053,170,211,171,233,181,25.733,3.733,-10.145,0.0000,0.0000,0.0000,0.0000,0.0000,1,0
8100,169,223,174,239,183,25.565,-8.656,-8.580,0.0000,0.0000,0.0000,0.0000,0.0000,1,0
8153,169,235,177,250,185,13.718,-5.198,-3.534,0.0000,0.0000,0.0000,0.0000,0.0000,1,0
8204,171,244,179,260,187,8.656,-5.634,-3.710,0.0000,0.0000,0.0000,0.0000,0.0000,1,0
8251,172,252,180,272,192,12.550,-3.893,-1.824,0.0000,0.0000,0.0000,0.0630,0.0000,1,0
8302,173,260,184,286,198,14.389,2.954,-0.046,0.0000,0.0000,0.0000,0.1859,0.0000,1,0
8350,176,268,187,296,205,9.870,-7.122,-4.863,0.0000,0.0625,0.0000,0.2737,0.0000,1,0
8403,178,275,191,306,213,-7.817,4.977,0.069,0.0000,0.1198,0.0000,0.3615,0.0000,1,0
8450,181,280,193,311,217,9.550,-17.527,-2.466,0.0000,0.1607,0.0000,0.4054,0.0000,1,0
8501,185,286,196,317,221,0.420,4.618,-1.458,0.0095,0.2098,0.0000,0.4581,0.0000,1,0
8550,187,291,196,321,227,-9.122,6.893,6.214,0.0235,0.2507,0.0000,0.4932,0.0000,1,0
8601,187,298,195,326,240,-65.214,12.061,38.198,0.0235,0.3080,0.0000,0.5371,0.0000,1,0
8651,184,298,194,323,249,-126.084,39.466,51.863,0.0024,0.3080,0.0000,0.5108,0.0400,1,0
8702,179,294,193,315,251,-58.832,51.397,20.389,0.0000,0.2753,0.0000,0.4405,0.0501,1,0
8753,175,293,191,311,248,-32.359,-11.985,17.550,0.0000,0.2671,0.0000,0.4054,0.0350,1,0
8802,175,292,190,310,247,24.595,-6.924,2.382,0.0000,0.2589,0.0000,0.3966,0.0300,1,0
8853,174,290,190,309,247,-1.519,-0.519,7.763,0.0000,0.2426,0.0000,0.3878,0.0300,1,0
8900,174,289,190,308,246,-29.702,-1.733,12.824,0.0000,0.2344,0.0000,0.3791,0.0249,1,0
8954,174,289,189,308,244,40.542,5.366,-2.366,0.0000,0.2344,0.0000,0.3791,0.0149,1,0
9001,174,288,189,306,242,-15.435,5.298,8.939,0.0000,0.2262,0.0000,0.3615,0.0048,1,0
9054,174,288,189,305,242,22.183,-4.924,-7.634,0.0000,0.2262,0.0000,0.3527,0.0048,1,0
9101,173,288,189,306,243,39.267,3.076,-11.214,0.0000,0.2262,0.0000,0.3615,0.0098,1,0
9152,173,289,189,306,246,7.626,3.924,-6.710,0.0000,0.2344,0.0000,0.3615,0.0249,1,0
9202,173,289,189,305,245,20.321,3.496,-5.817,0.0000,0.2344,0.0000,0.3527,0.0199,1,0
9253,173,289,189,304,244,5.275,3.084,4.893,0.0000,0.2344,0.0000,0.3439,0.0149,1,0
9302,173,288,189,304,245,10.550,2.824,1.824,0.0000,0.2262,0.0000,0.3439,0.0199,1,0
9353,173,288,188,304,245,2.214,3.748,2.107,0.0000,0.2262,0.0000,0.3439,0.0199,1,0
9400,173,287,188,303,245,4.092,3.542,-1.710,0.0000,0.2180,0.0000,0.3351,0.0199,1,0
9453,173,286,188,304,243,3.992,4.122,-1.603,0.0000,0.2098,0.0000,0.3439,0.0098,1,0
9501,173,286,188,304,243,3.351,1.099,0.550,0.0000,0.2098,0.0000,0.3439,0.0098,1,0
9554,173,286,188,303,242,9.435,5.023,0.000,0.0000,0.2098,0.0000,0.3351,0.0048,1,0
9601,173,286,188,303,241,4.359,4.359,0.977,0.0000,0.2098,0.0000,0.3351,0.0000,1,0
9652,173,285,188,303,240,11.359,0.229,-1.573,0.0000,0.2016,0.0000,0.3351,0.0000,1,0
9701,173,285,189,303,241,9.847,1.053,-0.672,0.0000,0.2016,0.0000,0.3351,0.0000,1,0
9752,173,285,189,303,240,6.046,1.252,-1.794,0.0000,0.2016,0.0000,0.3351,0.0000,1,0
9800,172,284,188,302,240,-1.015,-1.840,-1.397,0.0000,0.1934,0.0000,0.3264,0.0000,1,0
9853,173,283,188,302,239,8.855,1.168,-3.573,0.0000,0.1853,0.0000,0.3264,0.0000,1,0
9900,304,365,313,376,341,-1.847,0.336,0.160,0.8468,0.8564,1.0000,0.9761,0.5030,1,1
9953,330,379,336,390,359,12.779,-3.817,0.092,1.0000,0.9710,1.0000,1.0000,0.5936,1,1
10000,331,379,338,391,359,-3.985,-14.183,2.901,1.0000,0.9710,1.0000,1.0000,0.5936,1,1
10054,331,377,338,390,355,-3.321,-10.153,0.321,1.0000,0.9546,1.0000,1.0000,0.5734,1,1
10103,331,376,338,388,350,-11.328,-7.786,3.473,1.0000,0.9464,1.0000,1.0000,0.5483,1,1
10150,330,374,337,384,347,-2.450,-5.710,1.733,1.0000,0.9301,1.0000,1.0000,0.5332,1,1
10203,330,373,339,379,343,-0.450,-15.328,3.366,1.0000,0.9219,1.0000,1.0000,0.5130,1,1
10250,330,375,341,375,340,22.298,-15.000,-1.435,1.0000,0.9382,1.0000,0.9673,0.4979,1,1
10303,334,386,343,372,338,5.473,-11.008,13.939,1.0000,1.0000,1.0000,0.9410,0.4879,1,1
10353,339,396,347,372,335,19.656,-2.580,8.824,1.0000,1.0000,1.0000,0.9410,0.4728,1,1
10400,347,400,348,372,334,14.809,7.069,14.321,1.0000,1.0000,1.0000,0.9410,0.4678,1,1
10453,356,399,345,373,332,10.580,11.053,10.817,1.0000,1.0000,1.0000,0.9498,0.4577,1,1
10502,361,396,341,372,330,3.725,23.420,12.153,1.0000,1.0000,1.0000,0.9410,0.4476,1,1
10553,363,394,337,370,328,11.237,12.496,3.496,1.0000,1.0000,1.0000,0.9234,0.4376,1,1
10602,368,393,334,368,327,36.359,16.382,-9.496,1.0000,1.0000,1.0000,0.9059,0.4325,1,1
10649,372,392,332,368,327,9.695,7.298,0.260,1.0000,1.0000,1.0000,0.9059,0.4325,1,1
10703,376,392,330,366,326,22.122,0.260,-5.374,1.0000,1.0000,1.0000,0.8883,0.4275,1,1
10752,378,392,330,366,326,10.053,-2.725,-1.023,1.0000,1.0000,1.0000,0.8883,0.4275,1,1
10799,379,392,330,366,326,19.626,2.939,-4.450,1.0000,1.0000,1.0000,0.8883,0.4275,1,1
10852,380,392,330,366,326,11.824,4.412,-2.863,1.0000,1.0000,1.0000,0.8883,0.4275,1,1
10901,381,391,329,365,326,1.191,3.069,-0.595,1.0000,1.0000,1.0000,0.8795,0.4275,1,1
10953,381,391,329,365,326,15.740,1.198,-3.107,1.0000,1.0000,1.0000,0.8795,0.4275,1,1
11002,382,391,329,365,326,2.237,1.328,0.267,1.0000,1.0000,1.0000,0.8795,0.4275,1,1
11053,383,390,329,364,326,14.023,-0.672,-2.260,1.0000,1.0000,1.0000,0.8708,0.4275,1,1
11102,383,390,329,364,326,2.435,-0.817,-0.481,1.0000,1.0000,1.0000,0.8708,0.4275,1,1
11151,383,390,329,363,326,4.626,0.382,-0.244,1.0000,1.0000,1.0000,0.8620,0.4275,1,1
11202,383,390,329,364,326,9.550,-0.992,-1.198,1.0000,1.0000,1.0000,0.8708,0.4275,1,1
11252,383,390,329,364,326,4.038,-1.061,0.695,1.0000,1.0000,1.0000,0.8708,0.4275,1,1
11303,383,389,329,364,326,11.504,0.931,-0.382,1.0000,1.0000,1.0000,0.8708,0.4275,1,1
11352,383,390,329,363,326,0.527,1.282,1.733,1.0000,1.0000,1.0000,0.8620,0.4275,1,1
11399,383,390,329,363,326,10.595,2.237,-2.885,1.0000,1.0000,1.0000,0.8620,0.4275,1,1
11452,383,390,329,364,327,0.244,0.725,-0.282,1.0000,1.0000,1.0000,0.8708,0.4325,1,1
11501,382,390,329,364,326,7.962,-2.130,-1.275,1.0000,1.0000,1.0000,0.8708,0.4275,1,1
11553,376,388,328,363,326,-15.847,-4.405,-3.725,1.0000,1.0000,1.0000,0.8620,0.4275,1,1
11602,362,388,329,364,326,-22.626,3.992,-16.634,1.0000,1.0000,1.0000,0.8708,0.4275,1,1
11649,344,389,332,365,327,15.878,6.779,-12.504,1.0000,1.0000,1.0000,0.8795,0.4325,1,1
11702,333,386,330,370,330,0.748,6.817,2.412,1.0000,1.0000,1.0000,0.9234,0.4476,1,1
11751,329,383,328,377,337,16.252,17.160,3.687,1.0000,1.0000,1.0000,0.9849,0.4829,1,1
11803,328,380,328,379,342,15.237,8.534,7.008,1.0000,0.9792,1.0000,1.0000,0.5080,1,1
11850,185,285,185,290,214,-2.168,4.374,0.626,0.0095,0.2016,0.0000,0.2210,0.0000,1,0
11903,166,269,165,276,195,7.267,-4.145,-0.748,0.0000,0.0707,0.0000,0.0981,0.0000,1,0
11950,166,265,164,275,194,3.626,2.634,-3.733,0.0000,0.0379,0.0000,0.0893,0.0000,1,0
12001,166,263,164,273,194,2.786,3.344,-1.908,0.0000,0.0216,0.0000,0.0717,0.0000,1,0
12050,166,262,164,273,194,5.687,11.015,-4.282,0.0000,0.0134,0.0000,0.0717,0.0000,1,0
12102,166,261,163,273,194,4.336,5.878,-3.267,0.0000,0.0052,0.0000,0.0717,0.0000,1,0
12153,165,264,163,276,197,8.321,8.908,-10.427,0.0000,0.0298,0.0000,0.0981,0.0000,1,0
12202,165,268,165,278,200,10.740,12.977,-8.084,0.0000,0.0625,0.0000,0.1156,0.0000,1,0
12253,165,272,168,281,205,8.985,7.466,-5.260,0.0000,0.0952,0.0000,0.1420,0.0000,1,0
12300,165,275,170,282,207,10.855,4.443,-1.107,0.0000,0.1198,0.0000,0.1508,0.0000,1,0
12353,165,277,171,282,207,5.901,4.237,-2.740,0.0000,0.1362,0.0000,0.1508,0.0000,1,0
12401,165,277,171,281,207,6.595,9.595,4.145,0.0000,0.1362,0.0000,0.1420,0.0000,1,0
12452,165,276,171,280,206,7.344,8.260,-0.107,0.0000,0.1280,0.0000,0.1332,0.0000,1,0
12499,165,276,171,279,207,10.870,8.313,-0.450,0.0000,0.1280,0.0000,0.1244,0.0000,1,0
12552,165,277,171,279,207,1.756,5.748,-0.252,0.0000,0.1362,0.0000,0.1244,0.0000,1,0
12603,165,277,171,278,205,23.183,3.061,-2.496,0.0000,0.1362,0.0000,0.1156,0.0000,1,0
12650,164,277,171,278,205,4.695,1.672,-0.382,0.0000,0.1362,0.0000,0.1156,0.0000,1,0
12704,164,279,171,277,203,9.206,5.405,-1.015,0.0000,0.1525,0.0000,0.1069,0.0000,1,0
12751,164,279,171,275,202,8.267,4.756,-1.427,0.0000,0.1525,0.0000,0.0893,0.0000,1,0
12802,164,278,171,274,201,4.458,5.282,-1.405,0.0000,0.1443,0.0000,0.0805,0.0000,1,0
12851,164,277,171,273,199,3.290,0.809,-0.595,0.0000,0.1362,0.0000,0.0717,0.0000,1,0
12902,164,276,171,273,199,13.931,-0.412,-3.504,0.0000,0.1280,0.0000,0.0717,0.0000,1,0
12953,164,276,171,272,199,4.122,-1.183,-2.763,0.0000,0.1280,0.0000,0.0630,0.0000,1,0
13001,164,276,171,272,198,14.832,-0.947,-7.115,0.0000,0.1280,0.0000,0.0630,0.0000,1,0
13054,164,276,170,271,198,4.282,-3.450,-4.160,0.0000,0.1280,0.0000,0.0542,0.0000,1,0
13101,164,275,170,271,198,13.885,1.863,-3.817,0.0000,0.1198,0.0000,0.0542,0.0000,1,0
13152,164,275,171,270,197,1.382,1.160,2.168,0.0000,0.1198,0.0000,0.0454,0.0000,1,0
13201,164,274,170,270,197,17.511,1.863,-4.321,0.0000,0.1116,0.0000,0.0454,0.0000,1,0
13252,164,273,170,270,196,3.527,-0.168,-1.802,0.0000,0.1034,0.0000,0.0454,0.0000,1,0
13302,164,273,170,270,196,12.046,-0.359,-4.580,0.0000,0.1034,0.0000,0.0454,0.0000,1,0
13353,164,273,170,269,196,7.565,0.008,-4.702,0.0000,0.1034,0.0000,0.0366,0.0000,1,0
13400,164,273,170,269,196,7.237,3.435,-3.756,0.0000,0.1034,0.0000,0.0366,0.0000,1,0
13451,164,272,169,269,196,6.634,6.786,-2.969,0.0000,0.0952,0.0000,0.0366,0.0000,1,0
13500,164,272,170,269,196,1.565,7.573,-0.450,0.0000,0.0952,0.0000,0.0366,0.0000,1,0
13551,164,272,169,269,196,0.183,4.733,-1.809,0.0000,0.0952,0.0000,0.0366,0.0000,1,0
13603,164,272,169,268,196,11.153,1.916,0.015,0.0000,0.0952,0.0000,0.0278,0.0000,1,0
13652,164,272,169,268,196,6.374,2.931,-1.840,0.0000,0.0952,0.0000,0.0278,0.0000,1,0
13703,164,272,169,268,196,3.771,7.511,-1.076,0.0000,0.0952,0.0000,0.0278,0.0000,1,0
13750,164,272,169,268,196,-1.221,4.969,-0.336,0.0000,0.0952,0.0000,0.0278,0.0000,1,0
13801,164,272,169,268,196,9.740,0.878,-1.153,0.0000,0.0952,0.0000,0.0278,0.0000,1,0
13851,164,271,169,267,196,5.779,-1.878,-1.282,0.0000,0.0870,0.0000,0.0191,0.0000,1,0
13902,164,271,169,268,196,6.893,1.427,-1.176,0.0000,0.0870,0.0000,0.0278,0.0000,1,0
13953,164,271,169,269,196,5.198,2.038,-1.153,0.0000,0.0870,0.0000,0.0366,0.0000,1,0
14002,163,271,169,269,196,8.290,4.053,-0.244,0.0000,0.0870,0.0000,0.0366,0.0000,1,0
14053,163,271,169,269,195,5.595,1.527,1.405,0.0000,0.0870,0.0000,0.0366,0.0000,1,0
14100,163,271,169,268,196,10.802,3.290,-1.893,0.0000,0.0870,0.0000,0.0278,0.0000,1,0
14152,164,271,169,269,195,9.023,0.450,-1.298,0.0000,0.0870,0.0000,0.0366,0.0000,1,0
14201,164,271,168,269,196,8.893,0.191,-0.061,0.0000,0.0870,0.0000,0.0366,0.0000,1,0
14252,164,271,169,269,196,2.840,4.092,-0.214,0.0000,0.0870,0.0000,0.0366,0.0000,1,0
14303,164,271,169,269,196,5.275,2.977,-1.786,0.0000,0.0870,0.0000,0.0366,0.0000,1,0
14350,164,270,169,269,196,5.160,4.191,0.214,0.0000,0.0789,0.0000,0.0366,0.0000,1,0
14403,164,271,169,269,196,6.611,3.985,0.550,0.0000,0.0870,0.0000,0.0366,0.0000,1,0
14451,163,271,169,269,196,5.084,5.000,0.107,0.0000,0.0870,0.0000,0.0366,0.0000,1,0
14502,163,271,169,269,196,7.504,4.221,1.137,0.0000,0.0870,0.0000,0.0366,0.0000,1,0
14551,163,270,169,269,196,8.092,1.794,2.198,0.0000,0.0789,0.0000,0.0366,0.0000,1,0
14602,163,270,169,269,197,8.130,3.176,2.038,0.0000,0.0789,0.0000,0.0366,0.0000,1,0
14653,164,270,169,269,197,11.053,1.053,2.771,0.0000,0.0789,0.0000,0.0366,0.0000,1,0
14700,163,270,169,268,197,7.672,0.725,2.412,0.0000,0.0789,0.0000,0.0278,0.0000,1,0
14754,163,270,169,268,197,8.084,3.321,3.015,0.0000,0.0789,0.0000,0.0278,0.0000,1,0
14801,163,271,169,269,197,-1.985,3.878,2.847,0.0000,0.0870,0.0000,0.0366,0.0000,1,0
14852,163,271,168,269,197,12.321,2.275,-1.168,0.0000,0.0870,0.0000,0.0366,0.0000,1,0
14901,163,270,168,269,197,3.160,-0.794,1.305,0.0000,0.0789,0.0000,0.0366,0.0000,1,0
14952,163,270,168,268,197,17.672,0.931,-2.817,0.0000,0.0789,0.0000,0.0278,0.0000,1,0
14999,163,270,168,269,197,-7.802,-5.305,-0.031,0.0000,0.0789,0.0000,0.0366,0.0000,1,0
15053,164,270,169,270,197,1.015,-0.298,1.145,0.0000,0.0789,0.0000,0.0454,0.0000,1,0
15104,165,270,169,271,197,-3.008,8.969,17.458,0.0000,0.0789,0.0000,0.0542,0.0000,1,0
15151,165,270,169,272,198,-1.359,13.359,18.573,0.0000,0.0789,0.0000,0.0630,0.0000,1,0
15202,165,271,169,272,200,-0.939,14.573,16.740,0.0000,0.0870,0.0000,0.0630,0.0000,1,0
15251,164,271,169,273,201,7.634,12.267,13.130,0.0000,0.0870,0.0000,0.0717,0.0000,1,0
15303,164,271,170,273,202,11.076,11.634,8.702,0.0000,0.0870,0.0000,0.0717,0.0000,1,0
15350,164,271,170,273,202,5.221,7.275,6.290,0.0000,0.0870,0.0000,0.0717,0.0000,1,0
15403,164,271,170,273,202,5.405,3.221,-1.588,0.0000,0.0870,0.0000,0.0717,0.0000,1,0
15450,163,271,170,272,202,2.779,1.511,-6.779,0.0000,0.0870,0.0000,0.0630,0.0000,1,0
15501,163,270,170,272,201,1.855,1.237,-6.740,0.0000,0.0789,0.0000,0.0630,0.0000,1,0
15552,164,270,169,271,201,11.305,1.718,-6.405,0.0000,0.0789,0.0000,0.0542,0.0000,1,0
15602,164,270,169,272,201,-0.458,-0.092,-1.672,0.0000,0.0789,0.0000,0.0630,0.0000,1,0
15653,164,270,169,272,202,8.885,1.626,-4.176,0.0000,0.0789,0.0000,0.0630,0.0000,1,0
15700,164,270,169,271,202,1.496,1.000,-1.229,0.0000,0.0789,0.0000,0.0542,0.0000,1,0
15753,164,269,169,271,202,10.870,-0.511,-2.779,0.0000,0.0707,0.0000,0.0542,0.0000,1,0
# Gesture ID set to 3
15800,164,270,169,271,202,5.321,1.550,-1.244,0.0000,0.0789,0.0000,0.0542,0.0000,3,0
15851,164,269,169,271,203,3.053,2.878,-2.840,0.0000,0.0707,0.0000,0.0542,0.0000,3,0
15901,164,269,169,271,203,7.076,3.282,-4.412,0.0000,0.0707,0.0000,0.0542,0.0000,3,0
15952,164,269,169,270,204,10.718,-0.313,-3.221,0.0000,0.0707,0.0000,0.0454,0.0000,3,0
16003,164,269,169,270,205,2.969,-2.664,-2.084,0.0000,0.0707,0.0000,0.0454,0.0000,3,0
16052,165,268,169,271,205,17.679,-0.687,-6.031,0.0000,0.0625,0.0000,0.0542,0.0000,3,0
16103,165,268,169,270,206,19.290,-4.725,-6.695,0.0000,0.0625,0.0000,0.0454,0.0000,3,0
16150,165,268,169,270,207,20.420,0.748,-7.824,0.0000,0.0625,0.0000,0.0454,0.0000,3,0
16204,166,268,169,270,209,14.870,-4.237,-4.962,0.0000,0.0625,0.0000,0.0454,0.0000,3,0
16251,168,268,169,270,210,23.076,1.336,-6.511,0.0000,0.0625,0.0000,0.0454,0.0000,3,0
16302,168,267,169,271,211,15.779,0.832,-6.267,0.0000,0.0543,0.0000,0.0542,0.0000,3,0
16351,169,267,169,271,212,14.672,2.931,-5.809,0.0000,0.0543,0.0000,0.0542,0.0000,3,0
16402,170,267,169,271,212,13.328,0.718,-4.344,0.0000,0.0543,0.0000,0.0542,0.0000,3,0
16449,171,267,169,271,211,6.305,-0.656,4.053,0.0000,0.0543,0.0000,0.0542,0.0000,3,0
16503,171,267,169,271,211,15.573,-1.756,0.435,0.0000,0.0543,0.0000,0.0542,0.0000,3,0
16550,171,267,169,271,211,-18.519,3.115,8.893,0.0000,0.0543,0.0000,0.0542,0.0000,3,0
16601,171,267,169,271,210,-35.489,-0.237,15.771,0.0000,0.0543,0.0000,0.0542,0.0000,3,0
16650,171,266,169,270,209,-21.382,8.740,11.802,0.0000,0.0461,0.0000,0.0454,0.0000,3,0
16701,170,266,169,270,209,-26.061,3.870,14.496,0.0000,0.0461,0.0000,0.0454,0.0000,3,0
16753,171,265,169,271,208,11.473,6.000,2.527,0.0000,0.0379,0.0000,0.0542,0.0000,3,0
16802,171,265,169,271,208,-16.046,-0.962,6.130,0.0000,0.0379,0.0000,0.0542,0.0000,3,0
16853,171,265,169,272,208,12.122,3.099,-6.252,0.0000,0.0379,0.0000,0.0630,0.0000,3,0
16900,171,265,169,276,207,-3.954,2.221,1.321,0.0000,0.0379,0.0000,0.0981,0.0000,3,0
16953,171,265,169,280,207,0.466,8.046,0.321,0.0000,0.0379,0.0000,0.1332,0.0000,3,0
17000,172,265,169,282,207,14.595,8.466,0.275,0.0000,0.0379,0.0000,0.1508,0.0000,3,0
17052,172,265,169,283,207,1.427,0.779,2.275,0.0000,0.0379,0.0000,0.1595,0.0000,3,0
17101,172,265,169,283,207,16.718,10.076,-4.649,0.0000,0.0379,0.0000,0.1595,0.0000,3,0
17152,172,265,169,282,207,-1.794,0.397,2.809,0.0000,0.0379,0.0000,0.1508,0.0000,3,0
17199,172,265,169,282,207,8.504,2.389,-1.336,0.0000,0.0379,0.0000,0.1508,0.0000,3,0
17252,172,264,169,281,207,-1.427,3.092,1.298,0.0000,0.0298,0.0000,0.1420,0.0000,3,0
17303,172,264,169,280,207,2.183,3.290,0.237,0.0000,0.0298,0.0000,0.1332,0.0000,3,0
17351,172,264,169,280,207,9.977,4.901,-3.534,0.0000,0.0298,0.0000,0.1332,0.0000,3,0
17404,172,264,169,280,207,-1.817,-1.092,-0.244,0.0000,0.0298,0.0000,0.1332,0.0000,3,0
17451,173,264,168,280,207,14.939,3.756,-1.427,0.0000,0.0298,0.0000,0.1332,0.0000,3,0
17502,173,264,168,280,207,0.847,4.046,0.901,0.0000,0.0298,0.0000,0.1332,0.0000,3,0
17551,173,264,168,280,207,14.664,3.870,-3.931,0.0000,0.0298,0.0000,0.1332,0.0000,3,0
17602,173,264,168,280,207,-5.527,-0.496,1.733,0.0000,0.0298,0.0000,0.1332,0.0000,3,0
17650,173,264,169,279,207,-6.626,-2.817,5.267,0.0000,0.0298,0.0000,0.1244,0.0000,3,0
17703,173,264,168,277,207,-8.855,-4.466,-0.061,0.0000,0.0298,0.0000,0.1069,0.0000,3,0
17750,172,264,168,277,207,-2.420,7.878,-5.878,0.0000,0.0298,0.0000,0.1069,0.0000,3,0
17801,172,263,168,277,207,25.679,0.427,-12.901,0.0000,0.0216,0.0000,0.1069,0.0000,3,0
17850,172,263,168,277,207,4.542,-1.908,-5.885,0.0000,0.0216,0.0000,0.1069,0.0000,3,0
17901,172,264,168,277,208,58.031,10.427,-23.664,0.0000,0.0298,0.0000,0.1069,0.0000,3,0
17953,171,265,168,280,212,28.992,11.008,-19.557,0.0000,0.0379,0.0000,0.1332,0.0000,3,0
18002,171,268,169,285,215,-10.328,17.160,-8.412,0.0000,0.0625,0.0000,0.1771,0.0000,3,0
18053,170,272,169,290,217,-1.695,35.122,-5.214,0.0000,0.0952,0.0000,0.2210,0.0000,3,0
18100,168,273,171,292,218,-40.160,72.405,23.092,0.0000,0.1034,0.0000,0.2386,0.0000,3,0
18153,162,273,175,292,216,-65.748,122.397,17.489,0.0000,0.1034,0.0000,0.2386,0.0000,3,0
18200,159,272,179,292,216,-50.351,147.779,5.053,0.0000,0.0952,0.0000,0.2386,0.0000,3,0
18252,157,270,184,293,220,-51.542,129.282,4.458,0.0000,0.0789,0.0000,0.2473,0.0000,3,0
18301,156,267,185,291,221,20.344,29.588,4.481,0.0000,0.0543,0.0000,0.2298,0.0000,3,0
18352,156,262,184,287,220,13.282,-24.435,9.351,0.0000,0.0134,0.0000,0.1947,0.0000,3,0
18399,155,259,183,284,219,-5.130,-17.611,14.641,0.0000,0.0000,0.0000,0.1683,0.0000,3,0
18452,156,256,183,280,215,-21.183,40.908,54.191,0.0000,0.0000,0.0000,0.1332,0.0000,3,0
18499,156,256,182,278,213,24.626,26.443,39.817,0.0000,0.0000,0.0000,0.1156,0.0000,3,0
18551,157,256,182,278,218,-13.656,38.000,47.305,0.0000,0.0000,0.0000,0.1156,0.0000,3,0
18604,158,256,182,278,221,10.534,44.679,20.137,0.0000,0.0000,0.0000,0.1156,0.0000,3,0
18651,158,256,182,278,221,12.939,25.000,6.053,0.0000,0.0000,0.0000,0.1156,0.0000,3,0
18702,159,256,181,279,222,-5.977,32.145,15.656,0.0000,0.0000,0.0000,0.1244,0.0000,3,0
18751,159,258,181,279,219,14.878,32.405,20.611,0.0000,0.0000,0.0000,0.1244,0.0000,3,0
18803,161,261,181,279,217,8.145,15.267,19.053,0.0000,0.0052,0.0000,0.1244,0.0000,3,0
18850,162,262,180,279,214,30.237,0.366,2.611,0.0000,0.0134,0.0000,0.1244,0.0000,3,0
18903,165,264,180,281,212,-0.053,-0.687,-8.924,0.0000,0.0298,0.0000,0.1420,0.0000,3,0
18950,167,265,179,282,211,20.481,-1.626,-15.168,0.0000,0.0379,0.0000,0.1508,0.0000,3,0
19001,170,266,179,282,211,-2.053,3.061,-0.779,0.0000,0.0461,0.0000,0.1508,0.0000,3,0
19050,170,265,178,281,210,30.000,19.840,2.740,0.0000,0.0379,0.0000,0.1420,0.0000,3,0
19102,171,264,178,281,210,14.664,7.221,-4.008,0.0000,0.0298,0.0000,0.1420,0.0000,3,0
19149,171,264,178,281,210,9.336,4.443,-5.794,0.0000,0.0298,0.0000,0.1420,0.0000,3,0
19202,171,263,177,280,209,5.840,3.206,-5.168,0.0000,0.0216,0.0000,0.1332,0.0000,3,0
19253,171,263,177,279,209,9.595,0.687,-1.794,0.0000,0.0216,0.0000,0.1244,0.0000,3,0
19302,171,262,177,279,208,7.405,5.565,-2.000,0.0000,0.0134,0.0000,0.1244,0.0000,3,0
19353,171,262,177,279,208,3.573,4.183,-1.023,0.0000,0.0134,0.0000,0.1244,0.0000,3,0
19401,285,340,288,350,308,9.992,4.427,-0.252,0.7131,0.6518,1.0000,0.7478,0.3369,3,1
19450,323,366,325,374,341,1.939,5.595,0.992,0.9805,0.8646,1.0000,0.9586,0.5030,3,1
19503,326,369,328,376,343,6.344,6.420,-0.595,1.0000,0.8891,1.0000,0.9761,0.5130,3,1
19550,326,369,329,376,343,2.595,-0.305,-0.641,1.0000,0.8891,1.0000,0.9761,0.5130,3,1
19603,326,369,329,376,343,7.466,7.420,-3.031,1.0000,0.8891,1.0000,0.9761,0.5130,3,1
19652,326,369,329,376,343,7.603,6.374,-3.649,1.0000,0.8891,1.0000,0.9761,0.5130,3,1
19700,326,369,329,376,344,18.023,-4.496,-3.802,1.0000,0.8891,1.0000,0.9761,0.5181,3,1
19753,327,370,329,376,344,49.573,-29.321,-13.527,1.0000,0.8973,1.0000,0.9761,0.5181,3,1
19800,329,370,329,379,345,109.527,-48.000,-34.473,1.0000,0.8973,1.0000,1.0000,0.5231,3,1
19853,335,370,330,382,343,152.763,-60.557,-43.282,1.0000,0.8973,1.0000,1.0000,0.5130,3,1
19902,346,372,331,386,340,193.458,-69.176,-45.122,1.0000,0.9137,1.0000,1.0000,0.4979,3,1
19949,358,374,334,391,338,211.809,-72.916,-26.336,1.0000,0.9301,1.0000,1.0000,0.4879,3,1
20003,366,374,337,397,342,250.130,-70.473,-17.023,1.0000,0.9301,1.0000,1.0000,0.5080,3,1
20050,371,371,339,407,351,247.183,-37.053,-9.450,1.0000,0.9055,1.0000,1.0000,0.5533,3,1
20103,371,365,344,423,359,213.695,-9.557,0.214,1.0000,0.8564,1.0000,1.0000,0.5936,3,1
20152,374,361,348,434,367,155.443,51.244,10.511,1.0000,0.8237,1.0000,1.0000,0.6338,3,1
20199,379,359,347,439,372,138.679,40.695,22.183,1.0000,0.8073,1.0000,1.0000,0.6590,3,1
20253,383,357,344,443,378,122.573,81.992,33.534,1.0000,0.7909,1.0000,1.0000,0.6892,3,1
20302,382,356,339,444,381,73.313,80.275,38.252,1.0000,0.7827,1.0000,1.0000,0.7043,3,1
20353,380,353,336,444,381,86.779,90.290,39.137,1.0000,0.7582,1.0000,1.0000,0.7043,3,1
20402,379,352,336,443,382,69.817,69.611,33.916,1.0000,0.7500,1.0000,1.0000,0.7093,3,1
20449,378,351,337,442,382,34.260,40.595,26.618,1.0000,0.7418,1.0000,1.0000,0.7093,3,1
20502,378,348,337,442,380,30.023,43.977,26.649,1.0000,0.7173,1.0000,1.0000,0.6992,3,1
20552,377,346,335,441,379,-8.977,40.344,15.870,1.0000,0.7009,1.0000,1.0000,0.6942,3,1
20603,378,346,336,440,378,30.290,30.763,18.153,1.0000,0.7009,1.0000,1.0000,0.6892,3,1
20652,378,346,336,439,378,-30.458,16.878,-0.748,1.0000,0.7009,1.0000,1.0000,0.6892,3,1
20699,377,346,335,439,379,28.458,15.748,7.382,1.0000,0.7009,1.0000,1.0000,0.6942,3,1
20752,377,346,335,439,378,0.084,18.176,5.855,1.0000,0.7009,1.0000,1.0000,0.6892,3,1
20801,377,346,334,439,378,14.031,15.740,6.221,1.0000,0.7009,1.0000,1.0000,0.6892,3,1
20853,376,346,334,439,379,-5.962,12.115,-3.321,1.0000,0.7009,1.0000,1.0000,0.6942,3,1
20902,377,346,335,439,379,12.710,1.557,-3.809,1.0000,0.7009,1.0000,1.0000,0.6942,3,1
20951,376,346,335,439,379,6.496,3.756,-3.160,1.0000,0.7009,1.0000,1.0000,0.6942,3,1
21002,376,345,335,439,379,8.015,0.305,-2.725,1.0000,0.6927,1.0000,1.0000,0.6942,3,1
21051,376,346,335,439,379,14.496,5.725,-0.092,1.0000,0.7009,1.0000,1.0000,0.6942,3,1
21102,376,345,335,439,378,-1.924,1.893,-2.519,1.0000,0.6927,1.0000,1.0000,0.6892,3,1
21152,375,345,335,438,379,8.664,2.534,1.351,1.0000,0.6927,1.0000,1.0000,0.6942,3,1
21201,375,345,335,438,379,3.817,-1.237,-3.115,1.0000,0.6927,1.0000,1.0000,0.6942,3,1
21252,375,345,335,438,378,15.122,-0.779,1.893,1.0000,0.6927,1.0000,1.0000,0.6892,3,1
21301,375,345,335,438,378,-3.000,2.313,-5.107,1.0000,0.6927,1.0000,1.0000,0.6892,3,1
21352,375,345,334,437,378,7.809,-3.137,-3.191,1.0000,0.6927,1.0000,1.0000,0.6892,3,1
21401,375,345,335,437,378,0.412,2.611,-4.053,1.0000,0.6927,1.0000,1.0000,0.6892,3,1
21451,375,345,335,437,377,5.824,0.916,-2.061,1.0000,0.6927,1.0000,1.0000,0.6841,3,1
21502,375,346,335,437,378,1.954,1.718,-3.191,1.0000,0.7009,1.0000,1.0000,0.6892,3,1
21551,375,345,335,437,377,0.527,-2.763,-4.427,1.0000,0.6927,1.0000,1.0000,0.6841,3,1
21604,375,346,335,435,375,-24.550,-21.481,-8.618,1.0000,0.7009,1.0000,1.0000,0.6741,3,1
21651,373,347,334,429,371,-19.748,-28.725,-15.336,1.0000,0.7091,1.0000,1.0000,0.6539,3,1
21700,367,348,333,420,364,-53.924,-44.359,-28.282,1.0000,0.7173,1.0000,1.0000,0.6187,3,1
21752,362,351,334,410,357,-18.779,-57.435,-29.008,1.0000,0.7418,1.0000,1.0000,0.5835,3,1
21801,359,354,335,402,351,-77.886,-69.504,-31.870,1.0000,0.7664,1.0000,1.0000,0.5533,3,1
21854,358,359,336,396,344,-87.229,-20.473,-23.267,1.0000,0.8073,1.0000,1.0000,0.5181,3,1
21901,355,362,336,391,338,-51.489,-31.336,-23.550,1.0000,0.8318,1.0000,1.0000,0.4879,3,1
21950,353,363,336,389,334,-38.481,-28.115,-16.756,1.0000,0.8400,1.0000,1.0000,0.4678,3,1
22002,244,267,211,310,201,-61.221,-30.588,-24.130,0.4246,0.0543,0.1558,0.3966,0.0000,3,0
22051,223,249,186,291,173,-149.038,-40.252,-25.924,0.2768,0.0000,0.0000,0.2298,0.0000,3,0
22102,219,247,180,284,169,-165.122,-37.466,-37.611,0.2487,0.0000,0.0000,0.1683,0.0000,3,0
22153,218,246,177,281,169,-198.221,-9.695,-19.992,0.2417,0.0000,0.0000,0.1420,0.0000,3,0
22200,209,246,175,280,171,-166.290,4.000,-26.718,0.1783,0.0000,0.0000,0.1332,0.0000,3,0
22251,196,246,175,279,175,-117.214,14.336,-1.634,0.0869,0.0000,0.0000,0.1244,0.0000,3,0
22301,189,245,174,277,179,-88.031,26.160,-1.099,0.0376,0.0000,0.0000,0.1069,0.0000,3,0
22352,187,244,174,274,182,-48.069,5.466,-9.924,0.0235,0.0000,0.0000,0.0805,0.0000,3,0
22403,185,241,174,272,183,-39.023,10.198,-8.901,0.0095,0.0000,0.0000,0.0630,0.0000,3,0
22450,184,240,174,270,183,2.267,-1.725,-4.885,0.0024,0.0000,0.0000,0.0454,0.0000,3,0
22501,183,239,174,270,181,4.191,-1.183,-1.466,0.0000,0.0000,0.0000,0.0454,0.0000,3,0
22555,183,239,173,268,180,2.458,0.427,-2.008,0.0000,0.0000,0.0000,0.0278,0.0000,3,0
22602,182,239,173,268,180,-2.427,-4.649,-2.130,0.0000,0.0000,0.0000,0.0278,0.0000,3,0
22653,183,240,173,268,180,-25.565,-5.687,1.756,0.0000,0.0000,0.0000,0.0278,0.0000,3,0
22700,182,241,173,269,180,1.382,3.534,-3.931,0.0000,0.0000,0.0000,0.0366,0.0000,3,0
22751,182,240,174,268,180,-51.038,3.252,7.290,0.0000,0.0000,0.0000,0.0278,0.0000,3,0
22802,182,244,174,271,182,-7.863,-1.160,-4.496,0.0000,0.0000,0.0000,0.0542,0.0000,3,0
22851,182,245,174,271,183,-11.672,-12.695,7.176,0.0000,0.0000,0.0000,0.0542,0.0000,3,0
22903,182,248,174,275,186,27.840,-25.794,3.672,0.0000,0.0000,0.0000,0.0893,0.0000,3,0
22954,182,249,174,277,187,16.267,-28.275,5.305,0.0000,0.0000,0.0000,0.1069,0.0000,3,0
23001,181,250,174,278,189,8.611,-12.145,-0.718,0.0000,0.0000,0.0000,0.1156,0.0000,3,0
23052,181,249,174,278,189,-1.183,-11.908,4.626,0.0000,0.0000,0.0000,0.1156,0.0000,3,0
23099,180,250,174,279,190,10.374,-2.947,0.183,0.0000,0.0000,0.0000,0.1244,0.0000,3,0
23099,180,250,174,279,190,10.374,-2.947,0.183,0.0000,0.0000,0.0000,0.1244,0.0000,3,0
23153,179,248,173,277,190,3.580,-0.542,0.260,0.0000,0.0000,0.0000,0.1069,0.0000,3,0
23204,179,248,173,277,190,10.298,-1.145,0.092,0.0000,0.0000,0.0000,0.1069,0.0000,3,0
23251,179,247,174,277,190,6.061,3.252,-0.550,0.0000,0.0000,0.0000,0.1069,0.0000,3,0
23302,178,247,174,276,189,6.137,1.221,-0.260,0.0000,0.0000,0.0000,0.0981,0.0000,3,0
23353,178,247,174,277,190,12.527,-0.023,-1.763,0.0000,0.0000,0.0000,0.1069,0.0000,3,0
23400,177,248,174,278,190,6.504,-0.634,-0.954,0.0000,0.0000,0.0000,0.1156,0.0000,3,0
23452,177,248,174,278,190,21.344,-6.954,-0.115,0.0000,0.0000,0.0000,0.1156,0.0000,3,0
23503,177,247,174,279,190,16.542,-3.924,-0.855,0.0000,0.0000,0.0000,0.1244,0.0000,3,0
23550,177,248,174,280,190,11.916,-13.924,3.794,0.0000,0.0000,0.0000,0.1332,0.0000,3,0
23603,177,251,174,283,191,4.863,-25.756,4.649,0.0000,0.0000,0.0000,0.1595,0.0000,3,0
23650,178,252,173,286,193,1.962,-26.817,5.718,0.0000,0.0000,0.0000,0.1859,0.0000,3,0
23701,179,253,173,292,196,4.672,-19.099,11.031,0.0000,0.0000,0.0000,0.2386,0.0000,3,0
23753,180,257,174,297,201,8.023,-20.939,3.618,0.0000,0.0000,0.0000,0.2825,0.0000,3,0
23800,181,258,176,300,204,4.244,-14.588,6.969,0.0000,0.0000,0.0000,0.3088,0.0000,3,0
23853,181,258,176,301,208,2.397,-5.496,4.435,0.0000,0.0000,0.0000,0.3176,0.0000,3,0
23900,181,258,175,299,209,5.679,-9.863,2.954,0.0000,0.0000,0.0000,0.3000,0.0000,3,0
23951,182,258,175,300,211,1.214,-3.588,2.191,0.0000,0.0000,0.0000,0.3088,0.0000,3,0
24004,182,258,175,300,211,12.389,-1.580,-1.458,0.0000,0.0000,0.0000,0.3088,0.0000,3,0
24052,181,258,175,300,211,10.832,0.802,-2.725,0.0000,0.0000,0.0000,0.3088,0.0000,3,0
24103,182,257,175,299,212,13.351,1.603,-2.069,0.0000,0.0000,0.0000,0.3000,0.0000,3,0
24150,182,256,175,298,212,14.290,4.374,-3.977,0.0000,0.0000,0.0000,0.2912,0.0000,3,0
24203,181,256,175,296,211,17.771,6.595,-8.313,0.0000,0.0000,0.0000,0.2737,0.0000,3,0
24250,180,255,175,295,210,-8.008,10.969,-6.359,0.0000,0.0000,0.0000,0.2649,0.0000,3,0
24301,180,253,175,294,209,-34.084,7.137,2.840,0.0000,0.0000,0.0000,0.2561,0.0000,3,0
24353,179,250,175,295,210,7.290,16.710,-6.198,0.0000,0.0000,0.0000,0.2649,0.0000,3,0
24400,178,249,175,297,211,-7.756,14.603,0.840,0.0000,0.0000,0.0000,0.2825,0.0000,3,0
24453,177,249,175,297,211,7.198,9.351,-5.000,0.0000,0.0000,0.0000,0.2825,0.0000,3,0
24504,177,249,175,297,211,-7.924,7.931,-0.298,0.0000,0.0000,0.0000,0.2825,0.0000,3,0
24551,176,250,175,297,211,-5.885,3.458,-1.206,0.0000,0.0000,0.0000,0.2825,0.0000,3,0
24603,176,253,175,298,214,-65.458,3.809,16.275,0.0000,0.0000,0.0000,0.2912,0.0000,3,0
24650,174,257,175,301,221,-117.489,33.321,21.336,0.0000,0.0000,0.0000,0.3176,0.0000,3,0
24703,167,258,176,303,231,-143.298,89.534,17.924,0.0000,0.0000,0.0000,0.3351,0.0000,3,0
24754,160,259,178,298,226,-76.557,125.786,6.084,0.0000,0.0000,0.0000,0.2912,0.0000,3,0
24801,155,259,179,297,223,-34.672,143.931,27.359,0.0000,0.0000,0.0000,0.2825,0.0000,3,0
24852,153,259,180,293,225,-2.908,66.374,3.458,0.0000,0.0000,0.0000,0.2473,0.0000,3,0
24902,153,260,180,289,227,-15.237,37.664,6.084,0.0000,0.0000,0.0000,0.2122,0.0000,3,0
24953,152,264,180,290,231,52.198,-49.557,-3.389,0.0000,0.0298,0.0000,0.2210,0.0000,3,0
25000,154,262,179,291,233,30.763,-35.237,1.229,0.0000,0.0134,0.0000,0.2298,0.0000,3,0
25053,154,264,179,292,235,21.023,-12.557,-4.893,0.0000,0.0298,0.0000,0.2386,0.0000,3,0
25100,155,264,179,293,235,13.046,4.275,-5.672,0.0000,0.0298,0.0000,0.2473,0.0000,3,0
25151,155,267,179,293,236,26.893,-15.382,2.084,0.0000,0.0543,0.0000,0.2473,0.0000,3,0
25201,156,268,178,296,239,63.580,-52.267,-0.618,0.0000,0.0625,0.0000,0.2737,0.0000,3,0
25252,160,267,178,298,239,33.863,-63.237,-1.420,0.0000,0.0543,0.0000,0.2912,0.0000,3,0
25299,166,268,178,298,234,119.305,-63.847,-10.634,0.0000,0.0625,0.0000,0.2912,0.0000,3,0
25352,176,269,177,297,222,-57.359,-135.489,15.763,0.0000,0.0707,0.0000,0.2825,0.0000,3,0
25403,182,268,175,296,220,-71.626,-60.595,13.618,0.0000,0.0625,0.0000,0.2737,0.0000,3,0
25450,183,266,175,296,225,-10.435,-42.847,11.069,0.0000,0.0461,0.0000,0.2737,0.0000,3,0
25504,183,267,175,295,227,15.435,-19.260,-4.435,0.0000,0.0543,0.0000,0.2649,0.0000,3,0
25551,184,266,175,295,225,-25.809,0.489,5.122,0.0024,0.0461,0.0000,0.2649,0.0000,3,0
25604,183,267,175,293,219,26.641,-17.809,4.794,0.0000,0.0543,0.0000,0.2473,0.0000,3,0
25651,182,267,174,292,218,16.145,-5.557,3.588,0.0000,0.0543,0.0000,0.2386,0.0000,3,0
25702,180,265,174,291,218,6.374,-1.557,0.779,0.0000,0.0379,0.0000,0.2298,0.0000,3,0
25751,179,264,174,290,217,15.275,-7.130,2.198,0.0000,0.0298,0.0000,0.2210,0.0000,3,0
25803,178,264,174,289,217,-3.420,4.794,2.718,0.0000,0.0298,0.0000,0.2122,0.0000,3,0
25850,266,325,263,342,293,14.580,-1.710,-1.344,0.5794,0.5290,0.7487,0.6776,0.2614,3,1
25903,323,364,321,376,342,-1.580,6.481,-1.305,0.9805,0.8482,1.0000,0.9761,0.5080,3,1
25952,327,367,326,379,346,12.397,3.588,-7.901,1.0000,0.8728,1.0000,1.0000,0.5281,3,1
25999,328,367,326,380,346,11.916,4.099,-5.290,1.0000,0.8728,1.0000,1.0000,0.5281,3,1
26052,328,367,326,379,347,42.511,1.580,-15.763,1.0000,0.8728,1.0000,1.0000,0.5332,3,1
26102,329,367,326,380,348,95.870,-9.466,-48.275,1.0000,0.8728,1.0000,1.0000,0.5382,3,1
26153,341,371,327,390,353,250.130,-20.687,-75.649,1.0000,0.9055,1.0000,1.0000,0.5634,3,1
26202,357,376,329,396,349,250.130,-8.069,-50.893,1.0000,0.9464,1.0000,1.0000,0.5432,3,1
26249,367,373,333,405,351,201.450,-21.794,-53.282,1.0000,0.9219,1.0000,1.0000,0.5533,3,1
26302,374,368,338,417,359,225.275,8.084,-50.779,1.0000,0.8810,1.0000,1.0000,0.5936,3,1
26351,388,365,342,425,364,238.397,80.489,-62.519,1.0000,0.8564,1.0000,1.0000,0.6187,3,1
26403,398,359,342,429,368,197.046,123.092,-32.977,1.0000,0.8073,1.0000,1.0000,0.6388,3,1
26452,397,357,340,432,370,149.382,119.809,9.183,1.0000,0.7909,1.0000,1.0000,0.6489,3,1
26499,396,355,339,434,373,97.588,123.450,15.351,1.0000,0.7746,1.0000,1.0000,0.6640,3,1
26552,393,353,338,433,374,55.290,69.260,11.275,1.0000,0.7582,1.0000,1.0000,0.6690,3,1
26601,392,352,337,432,375,71.260,57.206,5.519,1.0000,0.7500,1.0000,1.0000,0.6741,3,1
26653,392,351,337,432,375,61.725,37.374,6.435,1.0000,0.7418,1.0000,1.0000,0.6741,3,1
26702,392,350,337,431,376,39.786,42.763,6.366,1.0000,0.7336,1.0000,1.0000,0.6791,3,1
26751,392,349,338,431,376,15.290,16.695,6.198,1.0000,0.7254,1.0000,1.0000,0.6791,3,1
26802,393,348,338,431,375,-1.435,27.328,-0.809,1.0000,0.7173,1.0000,1.0000,0.6741,3,1
26851,393,348,339,429,375,-0.229,10.252,-3.405,1.0000,0.7173,1.0000,1.0000,0.6741,3,1
26902,393,348,339,429,375,9.534,15.069,0.130,1.0000,0.7173,1.0000,1.0000,0.6741,3,1
26952,393,348,339,429,375,-9.183,13.275,-2.374,1.0000,0.7173,1.0000,1.0000,0.6741,3,1
27001,393,347,339,428,375,9.740,5.130,-1.076,1.0000,0.7091,1.0000,1.0000,0.6741,3,1
27052,393,347,339,428,375,-2.756,1.908,2.183,1.0000,0.7091,1.0000,1.0000,0.6741,3,1
27101,393,347,339,427,375,2.718,3.573,-1.115,1.0000,0.7091,1.0000,1.0000,0.6741,3,1
27154,393,347,339,427,375,2.519,2.687,0.031,1.0000,0.7091,1.0000,1.0000,0.6741,3,1
27201,393,347,338,427,375,1.962,4.779,-1.092,1.0000,0.7091,1.0000,1.0000,0.6741,3,1
27251,393,347,338,427,375,8.611,3.038,0.023,1.0000,0.7091,1.0000,1.0000,0.6741,3,1
27304,393,347,339,427,375,1.466,1.115,-1.916,1.0000,0.7091,1.0000,1.0000,0.6741,3,1
27351,393,348,338,427,376,8.221,2.511,-0.168,1.0000,0.7173,1.0000,1.0000,0.6791,3,1
27400,393,348,338,427,375,5.366,1.779,-0.573,1.0000,0.7173,1.0000,1.0000,0.6741,3,1
27453,393,348,338,426,375,4.748,-1.389,-0.939,1.0000,0.7173,1.0000,1.0000,0.6741,3,1
27500,392,348,338,426,375,9.634,5.298,0.191,1.0000,0.7173,1.0000,1.0000,0.6741,3,1
27554,392,348,338,426,375,0.817,-1.641,-1.977,1.0000,0.7173,1.0000,1.0000,0.6741,3,1
27601,392,347,338,426,376,7.489,1.046,-1.137,1.0000,0.7091,1.0000,1.0000,0.6791,3,1
27650,392,347,338,426,375,0.916,-4.321,-2.634,1.0000,0.7091,1.0000,1.0000,0.6741,3,1
27703,391,348,338,425,374,-12.893,-15.076,-6.695,1.0000,0.7173,1.0000,1.0000,0.6690,3,1
27750,390,348,337,423,371,-1.252,-21.473,-2.985,1.0000,0.7173,1.0000,1.0000,0.6539,3,1
27799,387,348,336,419,368,-23.237,-31.351,-6.244,1.0000,0.7173,1.0000,1.0000,0.6388,3,1
27853,379,349,335,415,363,-42.878,-22.527,-13.466,1.0000,0.7254,1.0000,1.0000,0.6137,3,1
27900,373,350,335,408,357,-6.115,-25.313,-10.656,1.0000,0.7336,1.0000,1.0000,0.5835,3,1
27953,371,352,334,401,350,-60.710,-23.443,-9.527,1.0000,0.7500,1.0000,1.0000,0.5483,3,1
28002,369,352,333,393,344,7.832,-15.130,-5.351,1.0000,0.7500,1.0000,1.0000,0.5181,3,1
28051,367,351,331,385,339,-72.122,-38.084,-6.618,1.0000,0.7418,1.0000,1.0000,0.4929,3,1
28103,326,286,253,332,261,-45.954,-23.992,-17.885,1.0000,0.2098,0.6347,0.5898,0.1004,3,0
28152,259,226,177,279,184,-47.405,-24.069,-16.618,0.5302,0.0000,0.0000,0.1244,0.0000,3,0
28203,252,218,168,268,174,-133.489,-31.954,-3.733,0.4809,0.0000,0.0000,0.0278,0.0000,3,0
28250,251,217,167,264,171,-20.771,-24.641,-20.939,0.4739,0.0000,0.0000,0.0000,0.0000,3,0
28301,246,216,165,260,170,-106.000,-37.710,-3.954,0.4387,0.0000,0.0000,0.0000,0.0000,3,0
28352,244,216,164,257,170,-118.191,-32.595,-8.916,0.4246,0.0000,0.0000,0.0000,0.0000,3,0
28399,240,216,165,256,170,-55.847,-15.664,-3.924,0.3965,0.0000,0.0000,0.0000,0.0000,3,0
28451,234,216,165,255,171,-44.947,-7.000,-1.130,0.3542,0.0000,0.0000,0.0000,0.0000,3,0
28504,230,216,165,255,171,-34.412,-1.725,0.191,0.3261,0.0000,0.0000,0.0000,0.0000,3,0
28551,229,215,165,255,171,-28.725,-6.702,0.275,0.3191,0.0000,0.0000,0.0000,0.0000,3,0
28602,228,215,165,254,172,-19.244,-1.802,-0.672,0.3120,0.0000,0.0000,0.0000,0.0000,3,0
28653,226,215,165,254,172,-38.786,-4.092,2.069,0.2980,0.0000,0.0000,0.0000,0.0000,3,0
28701,225,215,165,254,172,-20.008,1.344,-1.351,0.2909,0.0000,0.0000,0.0000,0.0000,3,0
28752,222,215,165,254,172,-30.000,1.725,0.824,0.2698,0.0000,0.0000,0.0000,0.0000,3,0
28803,220,214,165,254,173,-19.977,0.267,-1.275,0.2557,0.0000,0.0000,0.0000,0.0000,3,0
28850,218,214,165,254,173,-13.542,-1.595,-2.511,0.2417,0.0000,0.0000,0.0000,0.0000,3,0
28901,216,214,165,253,173,-8.237,3.099,0.084,0.2276,0.0000,0.0000,0.0000,0.0000,3,0
28952,215,214,165,254,174,-5.244,-0.183,-0.557,0.2206,0.0000,0.0000,0.0000,0.0000,3,0
29000,214,214,165,253,173,-1.573,2.305,1.496,0.2135,0.0000,0.0000,0.0000,0.0000,3,0
29051,214,213,165,253,174,-1.191,1.031,-1.542,0.2135,0.0000,0.0000,0.0000,0.0000,3,0
29102,212,213,165,253,174,0.275,1.832,0.916,0.1994,0.0000,0.0000,0.0000,0.0000,3,0
29153,212,213,165,252,174,0.595,0.824,-1.733,0.1994,0.0000,0.0000,0.0000,0.0000,3,0
29200,211,213,165,252,174,0.061,1.374,0.084,0.1924,0.0000,0.0000,0.0000,0.0000,3,0
29251,210,213,165,252,173,-0.328,0.924,-1.359,0.1854,0.0000,0.0000,0.0000,0.0000,3,0
29303,209,213,165,251,173,-1.008,-0.023,-0.550,0.1783,0.0000,0.0000,0.0000,0.0000,3,0
29350,208,214,166,251,173,3.954,2.725,-0.962,0.1713,0.0000,0.0000,0.0000,0.0000,3,0
29401,206,213,166,252,173,-2.374,1.725,2.733,0.1572,0.0000,0.0000,0.0000,0.0000,3,0
29452,206,214,166,251,173,-0.046,-1.298,0.908,0.1572,0.0000,0.0000,0.0000,0.0000,3,0
29499,205,214,166,251,173,1.771,-1.160,0.939,0.1502,0.0000,0.0000,0.0000,0.0000,3,0
29550,205,214,166,251,174,-0.160,-4.504,0.969,0.1502,0.0000,0.0000,0.0000,0.0000,3,0
29602,204,214,166,251,174,1.084,-1.710,1.023,0.1432,0.0000,0.0000,0.0000,0.0000,3,0
29651,203,214,166,251,174,1.107,-2.954,-0.267,0.1361,0.0000,0.0000,0.0000,0.0000,3,0
29702,203,215,166,251,174,-4.527,-1.107,4.099,0.1361,0.0000,0.0000,0.0000,0.0000,3,0
29753,202,215,166,252,175,-3.748,1.595,1.557,0.1291,0.0000,0.0000,0.0000,0.0000,3,0
29800,201,216,166,252,175,2.863,-0.290,0.305,0.1220,0.0000,0.0000,0.0000,0.0000,3,0
29852,200,216,166,251,175,3.969,3.824,-0.527,0.1150,0.0000,0.0000,0.0000,0.0000,3,0
29903,199,216,166,253,175,-6.885,-10.863,-8.687,0.1080,0.0000,0.0000,0.0000,0.0000,3,0
29954,198,216,166,253,175,2.435,2.061,3.160,0.1009,0.0000,0.0000,0.0000,0.0000,3,0
30001,198,216,166,253,176,1.130,2.573,3.405,0.1009,0.0000,0.0000,0.0000,0.0000,3,0
30052,197,216,166,253,176,-5.817,1.565,7.244,0.0939,0.0000,0.0000,0.0000,0.0000,3,0
30103,196,216,166,254,176,-3.473,1.565,2.282,0.0869,0.0000,0.0000,0.0000,0.0000,3,0
30151,195,217,166,254,177,-5.542,0.725,2.916,0.0798,0.0000,0.0000,0.0000,0.0000,3,0
30202,194,217,165,254,177,-3.954,-0.611,-2.084,0.0728,0.0000,0.0000,0.0000,0.0000,3,0
30253,194,218,165,255,178,0.061,0.702,-1.893,0.0728,0.0000,0.0000,0.0000,0.0000,3,0
30300,193,218,165,255,178,1.176,2.748,-2.908,0.0658,0.0000,0.0000,0.0000,0.0000,3,0
30351,193,218,165,255,178,-2.641,2.962,-4.015,0.0658,0.0000,0.0000,0.0000,0.0000,3,0
30404,192,219,166,255,178,5.847,-1.176,-3.305,0.0587,0.0000,0.0000,0.0000,0.0000,3,0
30452,192,219,166,255,178,3.519,0.076,-1.603,0.0587,0.0000,0.0000,0.0000,0.0000,3,0
30503,192,220,166,255,178,4.756,1.115,-0.038,0.0587,0.0000,0.0000,0.0000,0.0000,3,0
30554,191,221,166,255,178,2.252,2.290,-1.252,0.0517,0.0000,0.0000,0.0000,0.0000,3,0
30601,191,221,166,255,179,-2.756,1.504,2.412,0.0517,0.0000,0.0000,0.0000,0.0000,3,0
30652,191,222,166,256,179,0.542,3.366,0.802,0.0517,0.0000,0.0000,0.0000,0.0000,3,0
30703,190,222,166,257,179,-2.603,0.824,2.992,0.0446,0.0000,0.0000,0.0000,0.0000,3,0
30751,189,222,166,257,179,-4.557,0.756,-0.534,0.0376,0.0000,0.0000,0.0000,0.0000,3,0
30802,188,222,166,258,179,-1.038,1.382,-1.893,0.0306,0.0000,0.0000,0.0000,0.0000,3,0
30849,188,224,166,259,180,-2.069,-2.313,-3.366,0.0306,0.0000,0.0000,0.0000,0.0000,3,0
30902,187,224,166,259,180,-0.122,-5.840,0.023,0.0235,0.0000,0.0000,0.0000,0.0000,3,0
30953,187,224,166,260,181,12.244,-7.840,1.076,0.0235,0.0000,0.0000,0.0000,0.0000,3,0
31000,187,225,167,260,181,11.305,-6.817,-0.076,0.0235,0.0000,0.0000,0.0000,0.0000,3,0
31052,186,226,167,261,181,13.649,-4.756,-2.977,0.0165,0.0000,0.0000,0.0000,0.0000,3,0
31103,186,226,167,261,181,5.221,-5.015,-3.969,0.0165,0.0000,0.0000,0.0000,0.0000,3,0
31150,186,227,167,261,180,0.771,-1.763,-3.527,0.0165,0.0000,0.0000,0.0000,0.0000,3,0
31203,186,227,167,260,180,-2.718,2.855,-2.099,0.0165,0.0000,0.0000,0.0000,0.0000,3,0
31250,186,227,167,260,180,-0.977,4.198,-0.565,0.0165,0.0000,0.0000,0.0000,0.0000,3,0
31302,186,228,167,261,180,3.885,2.489,-2.824,0.0165,0.0000,0.0000,0.0000,0.0000,3,0
31353,186,228,167,261,180,5.420,1.641,-3.405,0.0165,0.0000,0.0000,0.0000,0.0000,3,0
31400,186,228,167,260,180,6.595,5.115,-0.824,0.0165,0.0000,0.0000,0.0000,0.0000,3,0
31451,185,228,167,260,180,5.809,5.229,-2.863,0.0095,0.0000,0.0000,0.0000,0.0000,3,0
31502,185,228,167,260,180,8.550,5.916,-0.748,0.0095,0.0000,0.0000,0.0000,0.0000,3,0
31551,185,227,167,260,180,8.015,6.519,-0.023,0.0095,0.0000,0.0000,0.0000,0.0000,3,0
31603,185,227,167,259,180,5.328,7.893,0.504,0.0095,0.0000,0.0000,0.0000,0.0000,3,0
31654,186,227,167,259,180,6.328,7.397,0.603,0.0165,0.0000,0.0000,0.0000,0.0000,3,0
31701,186,227,167,258,180,5.031,4.275,0.237,0.0165,0.0000,0.0000,0.0000,0.0000,3,0
31752,186,227,167,258,180,7.084,2.168,1.748,0.0165,0.0000,0.0000,0.0000,0.0000,3,0
31803,186,227,167,258,180,6.046,3.092,-0.137,0.0165,0.0000,0.0000,0.0000,0.0000,3,0
31850,186,227,167,258,180,5.313,3.336,-0.550,0.0165,0.0000,0.0000,0.0000,0.0000,3,0
31902,186,227,167,258,179,7.389,1.969,-1.802,0.0165,0.0000,0.0000,0.0000,0.0000,3,0
31951,186,227,167,258,179,6.443,4.481,0.511,0.0165,0.0000,0.0000,0.0000,0.0000,3,0
32002,186,227,167,258,179,5.122,6.405,2.954,0.0165,0.0000,0.0000,0.0000,0.0000,3,0
32053,186,227,167,257,179,3.977,4.962,1.221,0.0165,0.0000,0.0000,0.0000,0.0000,3,0
32100,185,227,167,257,179,5.740,1.763,1.183,0.0095,0.0000,0.0000,0.0000,0.0000,3,0
32151,185,227,167,257,179,6.962,-0.092,-1.122,0.0095,0.0000,0.0000,0.0000,0.0000,3,0
32201,185,227,167,257,179,6.214,-1.130,-1.031,0.0095,0.0000,0.0000,0.0000,0.0000,3,0
32252,186,227,167,257,179,5.809,0.084,0.718,0.0165,0.0000,0.0000,0.0000,0.0000,3,0
32303,185,227,167,257,179,5.542,-1.229,-2.107,0.0095,0.0000,0.0000,0.0000,0.0000,3,0
32350,185,227,167,257,179,3.939,-0.771,-2.252,0.0095,0.0000,0.0000,0.0000,0.0000,3,0
32401,185,226,167,256,179,6.420,-0.748,-0.336,0.0095,0.0000,0.0000,0.0000,0.0000,3,0
32452,185,226,167,256,179,5.664,-1.481,-1.206,0.0095,0.0000,0.0000,0.0000,0.0000,3,0
32500,185,226,167,256,179,5.664,-0.740,-0.443,0.0095,0.0000,0.0000,0.0000,0.0000,3,0
32551,185,226,167,256,179,5.802,-2.435,-0.198,0.0095,0.0000,0.0000,0.0000,0.0000,3,0
32604,185,226,167,256,179,8.397,-1.679,-1.191,0.0095,0.0000,0.0000,0.0000,0.0000,3,0
32651,185,226,167,256,179,3.809,0.298,0.725,0.0095,0.0000,0.0000,0.0000,0.0000,3,0
32702,185,226,167,256,179,8.618,2.214,-2.389,0.0095,0.0000,0.0000,0.0000,0.0000,3,0
32754,185,226,166,256,179,3.351,3.656,0.939,0.0095,0.0000,0.0000,0.0000,0.0000,3,0
32801,185,226,167,256,179,7.351,3.916,-1.389,0.0095,0.0000,0.0000,0.0000,0.0000,3,0
32852,185,225,166,255,179,4.160,0.603,-0.519,0.0095,0.0000,0.0000,0.0000,0.0000,3,0
32899,185,226,166,256,179,7.092,-1.389,-2.038,0.0095,0.0000,0.0000,0.0000,0.0000,3,0
32950,185,226,166,256,178,5.519,-3.473,-1.168,0.0095,0.0000,0.0000,0.0000,0.0000,3,0
33003,185,225,166,256,179,5.466,-1.183,0.519,0.0095,0.0000,0.0000,0.0000,0.0000,3,0
33051,185,226,166,256,179,4.382,0.351,-1.710,0.0095,0.0000,0.0000,0.0000,0.0000,3,0
33102,185,226,167,256,179,2.664,0.328,-0.420,0.0095,0.0000,0.0000,0.0000,0.0000,3,0
33153,185,226,167,256,178,4.382,2.061,-1.489,0.0095,0.0000,0.0000,0.0000,0.0000,3,0
33200,186,227,167,256,178,3.389,0.046,-1.695,0.0165,0.0000,0.0000,0.0000,0.0000,3,0
33251,186,228,167,256,178,7.458,6.870,-4.405,0.0165,0.0000,0.0000,0.0000,0.0000,3,0
33302,186,228,168,256,179,7.076,-1.244,-2.496,0.0165,0.0000,0.0000,0.0000,0.0000,3,0
33352,186,229,168,256,178,6.412,1.389,-2.107,0.0165,0.0000,0.0000,0.0000,0.0000,3,0
33403,186,229,168,256,178,3.076,3.214,-1.298,0.0165,0.0000,0.0000,0.0000,0.0000,3,0
33454,186,229,168,256,178,3.550,2.313,-4.679,0.0165,0.0000,0.0000,0.0000,0.0000,3,0
33501,186,230,169,256,178,2.916,0.977,-0.969,0.0165,0.0000,0.0000,0.0000,0.0000,3,0
33552,186,230,168,255,178,5.618,3.649,-1.603,0.0165,0.0000,0.0000,0.0000,0.0000,3,0
33599,186,230,168,255,178,2.702,4.443,0.267,0.0165,0.0000,0.0000,0.0000,0.0000,3,0
33651,186,230,168,255,178,6.794,3.008,-1.115,0.0165,0.0000,0.0000,0.0000,0.0000,3,0
33702,186,229,168,255,178,4.427,2.954,0.718,0.0165,0.0000,0.0000,0.0000,0.0000,3,0
33749,186,230,169,255,178,5.145,1.664,-1.519,0.0165,0.0000,0.0000,0.0000,0.0000,3,0
33802,186,230,168,255,178,1.565,2.427,-1.084,0.0165,0.0000,0.0000,0.0000,0.0000,3,0
33853,186,229,168,255,178,7.046,1.947,-2.038,0.0165,0.0000,0.0000,0.0000,0.0000,3,0
33900,186,229,168,255,178,3.069,4.015,0.802,0.0165,0.0000,0.0000,0.0000,0.0000,3,0
33952,186,230,168,255,178,4.198,2.916,-0.244,0.0165,0.0000,0.0000,0.0000,0.0000,3,0
34003,186,230,168,255,178,3.595,-0.046,0.832,0.0165,0.0000,0.0000,0.0000,0.0000,3,0
# Gesture ID set to 4
34050,186,230,168,255,178,7.031,5.122,0.969,0.0165,0.0000,0.0000,0.0000,0.0000,4,0
34101,186,230,168,255,178,4.885,4.076,-0.443,0.0165,0.0000,0.0000,0.0000,0.0000,4,0
34152,186,229,168,255,178,7.298,7.450,0.076,0.0165,0.0000,0.0000,0.0000,0.0000,4,0
34199,185,229,168,255,178,6.221,2.305,0.702,0.0095,0.0000,0.0000,0.0000,0.0000,4,0
34253,186,229,168,255,178,5.344,1.679,3.084,0.0165,0.0000,0.0000,0.0000,0.0000,4,0
34304,186,230,168,255,178,5.260,1.595,1.115,0.0165,0.0000,0.0000,0.0000,0.0000,4,0
34351,186,229,168,255,178,5.290,-0.168,0.168,0.0165,0.0000,0.0000,0.0000,0.0000,4,0
34402,186,229,168,256,178,2.053,2.115,-0.542,0.0165,0.0000,0.0000,0.0000,0.0000,4,0
34453,186,229,168,257,178,8.000,1.252,-0.626,0.0165,0.0000,0.0000,0.0000,0.0000,4,0
34500,185,229,168,258,178,4.496,2.015,0.908,0.0095,0.0000,0.0000,0.0000,0.0000,4,0
34552,186,229,168,258,178,8.626,1.901,-0.374,0.0165,0.0000,0.0000,0.0000,0.0000,4,0
34603,186,229,168,258,178,13.153,-1.084,2.672,0.0165,0.0000,0.0000,0.0000,0.0000,4,0
34650,186,229,168,259,178,1.198,-0.840,6.962,0.0165,0.0000,0.0000,0.0000,0.0000,4,0
34701,186,229,169,259,178,1.046,5.115,6.305,0.0165,0.0000,0.0000,0.0000,0.0000,4,0
34750,186,228,169,259,179,-2.107,3.748,4.427,0.0165,0.0000,0.0000,0.0000,0.0000,4,0
34802,186,228,169,260,178,-5.069,0.519,3.794,0.0165,0.0000,0.0000,0.0000,0.0000,4,0
34853,186,228,169,260,179,5.809,0.145,3.473,0.0165,0.0000,0.0000,0.0000,0.0000,4,0
34900,186,228,169,260,179,-2.321,-1.534,4.305,0.0165,0.0000,0.0000,0.0000,0.0000,4,0
34951,186,228,170,260,179,2.962,2.916,1.748,0.0165,0.0000,0.0000,0.0000,0.0000,4,0
35002,185,228,170,261,180,-6.427,1.069,2.939,0.0095,0.0000,0.0000,0.0000,0.0000,4,0
35049,185,228,170,262,180,2.939,4.832,-0.641,0.0095,0.0000,0.0000,0.0000,0.0000,4,0
35103,185,228,170,262,181,-2.053,2.702,0.069,0.0095,0.0000,0.0000,0.0000,0.0000,4,0
35154,185,228,170,261,181,6.542,3.656,-3.168,0.0095,0.0000,0.0000,0.0000,0.0000,4,0
35201,185,229,170,262,181,3.412,0.702,-0.695,0.0095,0.0000,0.0000,0.0000,0.0000,4,0
35252,185,230,170,262,181,5.725,4.008,-1.298,0.0095,0.0000,0.0000,0.0000,0.0000,4,0
35299,185,230,170,264,181,2.382,1.679,0.214,0.0095,0.0000,0.0000,0.0000,0.0000,4,0
35350,185,231,170,265,181,2.046,2.611,-2.092,0.0095,0.0000,0.0000,0.0015,0.0000,4,0
35404,185,230,170,266,182,5.977,-1.076,0.298,0.0095,0.0000,0.0000,0.0103,0.0000,4,0
35451,185,230,170,268,182,-2.214,5.145,3.664,0.0095,0.0000,0.0000,0.0278,0.0000,4,0
35502,185,230,170,269,183,3.672,1.695,0.069,0.0095,0.0000,0.0000,0.0366,0.0000,4,0
35553,185,230,170,269,184,-13.740,5.115,1.550,0.0095,0.0000,0.0000,0.0366,0.0000,4,0
35600,185,230,170,267,184,0.527,5.321,0.153,0.0095,0.0000,0.0000,0.0191,0.0000,4,0
35654,184,230,170,266,184,7.229,2.580,-1.023,0.0024,0.0000,0.0000,0.0103,0.0000,4,0
35701,184,230,169,266,184,11.389,1.435,-0.366,0.0024,0.0000,0.0000,0.0103,0.0000,4,0
35752,184,230,169,265,184,4.748,5.550,2.176,0.0024,0.0000,0.0000,0.0015,0.0000,4,0
35803,184,230,170,264,184,1.214,4.901,-0.084,0.0024,0.0000,0.0000,0.0000,0.0000,4,0
35850,184,231,170,263,184,5.229,2.115,-0.321,0.0024,0.0000,0.0000,0.0000,0.0000,4,0
35903,184,230,170,263,184,5.511,2.336,0.794,0.0024,0.0000,0.0000,0.0000,0.0000,4,0
35950,184,230,170,263,184,4.443,2.733,-1.802,0.0024,0.0000,0.0000,0.0000,0.0000,4,0
36002,184,230,169,263,184,5.313,0.260,-0.985,0.0024,0.0000,0.0000,0.0000,0.0000,4,0
36053,184,230,169,263,184,3.046,1.122,-0.420,0.0024,0.0000,0.0000,0.0000,0.0000,4,0
36100,184,229,169,262,184,7.382,-0.427,-1.855,0.0024,0.0000,0.0000,0.0000,0.0000,4,0
36151,184,229,169,262,184,6.260,-1.298,0.046,0.0024,0.0000,0.0000,0.0000,0.0000,4,0
36204,184,228,169,262,184,3.939,0.664,-1.252,0.0024,0.0000,0.0000,0.0000,0.0000,4,0
36252,309,335,300,355,309,7.237,-0.618,-0.198,0.8820,0.6109,1.0000,0.7917,0.3420,4,1
36301,340,362,333,378,340,4.794,0.511,2.939,1.0000,0.8318,1.0000,0.9937,0.4979,4,1
36352,343,365,336,381,343,2.763,3.107,-0.412,1.0000,0.8564,1.0000,1.0000,0.5130,4,1
36401,344,365,337,381,344,5.053,2.885,-1.366,1.0000,0.8564,1.0000,1.0000,0.5181,4,1
36452,345,365,337,382,344,-0.221,6.611,1.771,1.0000,0.8564,1.0000,1.0000,0.5181,4,1
36501,345,365,339,382,345,1.260,8.573,0.267,1.0000,0.8564,1.0000,1.0000,0.5231,4,1
36551,346,366,342,384,345,-20.023,14.466,11.473,1.0000,0.8646,1.0000,1.0000,0.5231,4,1
36602,347,367,348,388,347,-1.779,23.947,-1.695,1.0000,0.8728,1.0000,1.0000,0.5332,4,1
36651,350,370,357,395,351,-9.947,38.756,-15.328,1.0000,0.8973,1.0000,1.0000,0.5533,4,1
36704,355,375,368,403,363,-93.183,46.878,-9.542,1.0000,0.9382,1.0000,1.0000,0.6137,4,1
36751,359,379,379,412,377,-14.489,37.588,-34.267,1.0000,0.9710,1.0000,1.0000,0.6841,4,1
36800,367,382,386,422,387,-121.099,50.511,-33.885,1.0000,0.9955,1.0000,1.0000,0.7345,4,1
36852,372,383,395,434,395,-49.534,58.496,-44.947,1.0000,1.0000,1.0000,1.0000,0.7747,4,1
36901,377,384,401,444,404,-153.740,29.855,-54.771,1.0000,1.0000,1.0000,1.0000,0.8200,4,1
36954,384,384,405,452,422,-65.588,56.359,-53.901,1.0000,1.0000,1.0000,1.0000,0.9106,4,1
37001,389,383,404,452,440,-101.710,50.344,-26.290,1.0000,1.0000,1.0000,1.0000,1.0000,4,1
37050,394,380,402,439,456,-92.366,93.321,-32.115,1.0000,0.9792,1.0000,1.0000,1.0000,4,1
37101,396,373,401,436,463,-104.252,161.740,-58.893,1.0000,0.9219,1.0000,1.0000,1.0000,4,1
37151,397,368,401,412,467,-69.122,91.878,-28.771,1.0000,0.8810,1.0000,1.0000,1.0000,4,1
37204,396,364,402,439,470,-39.847,69.084,-23.893,1.0000,0.8482,1.0000,1.0000,1.0000,4,1
37251,395,362,401,440,471,-18.023,44.969,-12.214,1.0000,0.8318,1.0000,1.0000,1.0000,4,1
37300,395,360,401,440,470,-25.527,22.000,-5.748,1.0000,0.8155,1.0000,1.0000,1.0000,4,1
37353,395,359,401,439,471,2.565,8.481,-7.420,1.0000,0.8073,1.0000,1.0000,1.0000,4,1
37400,395,359,401,439,471,-0.634,-6.038,1.405,1.0000,0.8073,1.0000,1.0000,1.0000,4,1
37454,395,359,401,438,470,4.076,-9.786,3.733,1.0000,0.8073,1.0000,1.0000,1.0000,4,1
37503,395,359,400,438,471,11.046,-0.992,1.405,1.0000,0.8073,1.0000,1.0000,1.0000,4,1
37550,396,358,400,437,470,4.458,-5.214,2.031,1.0000,0.7991,1.0000,1.0000,1.0000,4,1
37603,396,357,401,437,470,15.420,3.649,0.481,1.0000,0.7909,1.0000,1.0000,1.0000,4,1
37650,395,356,400,436,470,6.611,1.168,0.084,1.0000,0.7827,1.0000,1.0000,1.0000,4,1
37704,395,356,400,436,470,7.336,1.656,0.489,1.0000,0.7827,1.0000,1.0000,1.0000,4,1
37753,395,355,401,435,470,5.473,2.237,0.977,1.0000,0.7746,1.0000,1.0000,1.0000,4,1
37800,395,355,401,435,470,14.298,-1.473,0.473,1.0000,0.7746,1.0000,1.0000,1.0000,4,1
37853,395,355,400,435,468,13.015,1.618,-1.107,1.0000,0.7746,1.0000,1.0000,1.0000,4,1
37900,395,355,400,435,468,2.260,-3.031,3.916,1.0000,0.7746,1.0000,1.0000,1.0000,4,1
37953,395,355,400,435,468,18.931,-10.817,1.328,1.0000,0.7746,1.0000,1.0000,1.0000,4,1
38003,394,355,400,435,468,4.779,-2.405,0.206,1.0000,0.7746,1.0000,1.0000,1.0000,4,1
38050,394,355,400,435,468,9.206,-0.153,5.176,1.0000,0.7746,1.0000,1.0000,1.0000,4,1
38103,394,355,400,434,468,7.710,-2.000,-0.176,1.0000,0.7746,1.0000,1.0000,1.0000,4,1
38150,394,355,400,434,468,13.718,-0.122,0.450,1.0000,0.7746,1.0000,1.0000,1.0000,4,1
38203,394,354,400,434,468,4.588,-0.298,1.008,1.0000,0.7664,1.0000,1.0000,1.0000,4,1
38250,393,355,400,434,468,17.160,-1.893,-0.145,1.0000,0.7746,1.0000,1.0000,1.0000,4,1
38300,391,356,399,435,467,13.031,-23.031,1.641,1.0000,0.7827,1.0000,1.0000,1.0000,4,1
38353,390,361,398,434,466,7.420,-75.374,12.107,1.0000,0.8237,1.0000,1.0000,1.0000,4,1
38400,389,365,397,434,463,22.603,-59.527,8.084,1.0000,0.8564,1.0000,1.0000,1.0000,4,1
38453,384,370,396,434,457,23.176,-69.824,26.137,1.0000,0.8973,1.0000,1.0000,1.0000,4,1
38502,377,374,395,433,453,15.885,-51.832,-3.954,1.0000,0.9301,1.0000,1.0000,1.0000,4,1
38549,369,379,395,432,444,-13.885,-35.412,25.687,1.0000,0.9710,1.0000,1.0000,1.0000,4,1
38603,362,377,392,431,419,18.458,-12.565,2.443,1.0000,0.9546,1.0000,1.0000,0.8955,4,1
38650,357,368,389,431,398,-29.359,-12.458,11.176,1.0000,0.8810,1.0000,1.0000,0.7898,4,1
38703,352,361,387,428,383,-0.885,-44.031,21.382,1.0000,0.8237,1.0000,1.0000,0.7143,4,1
38752,350,356,386,421,377,40.809,-49.618,15.298,1.0000,0.7827,1.0000,1.0000,0.6841,4,1
38799,265,276,320,374,304,10.473,-33.053,26.733,0.5724,0.1280,1.0000,0.9586,0.3168,4,0
38852,181,198,254,322,229,35.351,-38.855,24.763,0.0000,0.0000,0.6461,0.5020,0.0000,4,0
38904,174,193,246,308,218,24.557,-33.420,28.794,0.0000,0.0000,0.5548,0.3791,0.0000,4,0
38951,172,193,242,298,214,44.450,-41.405,18.718,0.0000,0.0000,0.5092,0.2912,0.0000,4,0
39002,172,195,240,292,210,20.481,-22.863,28.198,0.0000,0.0000,0.4864,0.2386,0.0000,4,0
39049,171,199,239,288,207,33.649,-43.511,11.840,0.0000,0.0000,0.4750,0.2034,0.0000,4,0
39102,171,202,237,285,205,14.153,-19.206,21.031,0.0000,0.0000,0.4522,0.1771,0.0000,4,0
39154,171,206,236,284,204,26.351,-23.954,4.878,0.0000,0.0000,0.4408,0.1683,0.0000,4,0
39201,171,208,235,281,203,72.046,-38.977,9.160,0.0000,0.0000,0.4294,0.1420,0.0000,4,0
39252,171,214,232,274,202,33.473,-42.069,3.084,0.0000,0.0000,0.3952,0.0805,0.0000,4,0
39303,171,219,230,268,201,18.557,-12.802,1.191,0.0000,0.0000,0.3724,0.0278,0.0000,4,0
39350,171,221,228,267,199,16.092,-8.954,-2.443,0.0000,0.0000,0.3496,0.0191,0.0000,4,0
39403,171,226,226,265,199,23.649,-23.290,5.351,0.0000,0.0000,0.3268,0.0015,0.0000,4,0
39451,170,227,225,264,199,21.336,-12.176,0.824,0.0000,0.0000,0.3154,0.0000,0.0000,4,0
39502,170,230,224,262,198,15.710,-16.130,3.756,0.0000,0.0000,0.3040,0.0000,0.0000,4,0
39553,170,231,223,261,197,17.878,-16.115,7.122,0.0000,0.0000,0.2926,0.0000,0.0000,4,0
39600,170,232,222,259,196,23.389,-13.046,3.443,0.0000,0.0000,0.2812,0.0000,0.0000,4,0
39653,170,233,221,257,196,24.389,-1.794,4.405,0.0000,0.0000,0.2698,0.0000,0.0000,4,0
39700,169,235,220,256,195,14.214,1.008,2.672,0.0000,0.0000,0.2584,0.0000,0.0000,4,0
39752,169,237,219,255,195,2.290,0.885,-0.595,0.0000,0.0000,0.2470,0.0000,0.0000,4,0
39803,170,235,218,254,195,18.023,0.176,-0.779,0.0000,0.0000,0.2356,0.0000,0.0000,4,0
39850,170,236,218,253,195,4.237,-4.954,2.489,0.0000,0.0000,0.2356,0.0000,0.0000,4,0
39901,170,237,218,253,194,9.916,3.962,-2.458,0.0000,0.0000,0.2356,0.0000,0.0000,4,0
39952,169,237,217,252,194,-1.237,3.786,2.702,0.0000,0.0000,0.2242,0.0000,0.0000,4,0
39999,169,237,217,252,194,11.084,4.298,-2.527,0.0000,0.0000,0.2242,0.0000,0.0000,4,0
40051,169,236,216,252,194,2.893,0.748,3.214,0.0000,0.0000,0.2128,0.0000,0.0000,4,0
40102,170,235,216,251,194,13.351,7.443,-4.267,0.0000,0.0000,0.2128,0.0000,0.0000,4,0
40151,170,240,215,251,194,5.664,4.931,-4.237,0.0000,0.0000,0.2014,0.0000,0.0000,4,0
40202,172,251,213,254,195,51.901,-14.183,-9.702,0.0000,0.0000,0.1786,0.0000,0.0000,4,0
40253,172,265,209,265,204,114.687,-19.641,-26.443,0.0000,0.0379,0.1330,0.0015,0.0000,4,0
40300,174,275,206,278,218,95.305,-21.763,-38.885,0.0000,0.1198,0.0987,0.1156,0.0000,4,0
40354,175,287,204,299,233,79.595,-35.947,-17.290,0.0000,0.2180,0.0759,0.3000,0.0000,4,0
40401,179,299,203,311,245,69.107,-25.527,-23.779,0.0000,0.3162,0.0645,0.4054,0.0199,4,0
40454,182,300,202,310,247,32.214,-26.832,-1.282,0.0000,0.3244,0.0531,0.3966,0.0300,4,0
40501,184,301,202,310,249,13.702,-42.695,-14.443,0.0024,0.3326,0.0531,0.3966,0.0400,4,0
40554,187,301,202,309,250,86.817,-9.550,-33.786,0.0235,0.3326,0.0531,0.3878,0.0451,4,0
40601,192,299,203,307,248,81.176,-28.908,-33.305,0.0587,0.3162,0.0645,0.3703,0.0350,4,0
40653,197,298,203,306,247,45.550,-16.366,-26.931,0.0939,0.3080,0.0645,0.3615,0.0300,4,0
40702,199,298,203,307,247,10.115,-7.855,-9.412,0.1080,0.3080,0.0645,0.3703,0.0300,4,0
40749,200,298,204,308,248,-0.389,10.229,-15.733,0.1150,0.3080,0.0759,0.3791,0.0350,4,0
40802,202,297,204,309,247,-20.282,26.534,-8.618,0.1291,0.2998,0.0759,0.3878,0.0300,4,0
40849,204,296,203,307,245,-32.282,53.023,-7.176,0.1432,0.2917,0.0645,0.3703,0.0199,4,0
40903,202,295,203,307,244,-29.069,92.908,3.313,0.1291,0.2835,0.0645,0.3703,0.0149,4,0
40950,202,295,203,306,243,20.809,80.160,-27.107,0.1291,0.2835,0.0645,0.3615,0.0098,4,0
41003,200,292,203,305,241,-25.176,68.542,-24.008,0.1150,0.2589,0.0645,0.3527,0.0000,4,0
41050,198,290,203,304,240,-53.275,70.565,-20.076,0.1009,0.2426,0.0645,0.3439,0.0000,4,0
41103,195,289,203,301,239,-126.656,92.771,-7.847,0.0798,0.2344,0.0645,0.3176,0.0000,4,0
41150,185,287,203,300,242,-205.901,115.053,31.084,0.0095,0.2180,0.0645,0.3088,0.0048,4,0
41204,170,283,205,299,247,-108.557,122.901,19.435,0.0000,0.1853,0.0873,0.3000,0.0300,4,0
41251,166,279,204,295,242,-91.573,96.229,2.351,0.0000,0.1525,0.0759,0.2649,0.0048,4,0
41304,165,273,204,290,233,-93.504,64.740,25.458,0.0000,0.1034,0.0759,0.2210,0.0000,4,0
41351,163,272,205,283,222,33.137,22.473,13.290,0.0000,0.0952,0.0873,0.1595,0.0000,4,0
41402,165,269,204,280,217,23.214,-38.450,9.725,0.0000,0.0707,0.0759,0.1332,0.0000,4,0
41451,167,267,203,280,215,-4.687,24.183,-12.542,0.0000,0.0543,0.0645,0.1332,0.0000,4,0
41503,167,265,203,279,212,-15.015,23.099,-16.061,0.0000,0.0379,0.0645,0.1244,0.0000,4,0
41552,166,265,203,278,211,16.618,4.687,-8.183,0.0000,0.0379,0.0645,0.1156,0.0000,4,0
41603,166,264,203,278,211,10.763,0.511,-5.015,0.0000,0.0298,0.0645,0.1156,0.0000,4,0
41650,167,264,203,278,210,19.092,-1.794,-2.374,0.0000,0.0298,0.0645,0.1156,0.0000,4,0
41703,167,264,202,278,210,2.122,6.542,-3.153,0.0000,0.0298,0.0531,0.1156,0.0000,4,0
41750,168,264,202,278,209,18.504,-6.649,-2.702,0.0000,0.0298,0.0531,0.1156,0.0000,4,0
41804,168,264,202,278,208,12.260,-3.336,-0.847,0.0000,0.0298,0.0531,0.1156,0.0000,4,0
41851,169,264,202,278,208,11.756,-4.863,-3.779,0.0000,0.0298,0.0531,0.1156,0.0000,4,0
41902,170,264,202,277,207,4.290,-2.168,-3.779,0.0000,0.0298,0.0531,0.1069,0.0000,4,0
41951,170,263,202,277,207,9.122,2.359,-2.298,0.0000,0.0216,0.0531,0.1069,0.0000,4,0
42002,171,263,202,277,207,6.198,5.916,-2.908,0.0000,0.0216,0.0531,0.1069,0.0000,4,0
42051,171,263,201,276,206,0.595,-1.679,-1.099,0.0000,0.0216,0.0417,0.0981,0.0000,4,0
42103,171,263,202,276,206,19.435,0.550,-1.046,0.0000,0.0216,0.0531,0.0981,0.0000,4,0
42152,171,263,201,276,206,0.557,0.855,-0.985,0.0000,0.0216,0.0417,0.0981,0.0000,4,0
42203,171,263,201,276,206,17.015,6.947,-1.260,0.0000,0.0216,0.0417,0.0981,0.0000,4,0
42250,292,347,311,355,314,-3.557,0.802,0.000,0.7623,0.7091,1.0000,0.7917,0.3671,4,1
42303,333,375,347,381,349,12.939,5.305,-2.519,1.0000,0.9382,1.0000,1.0000,0.5432,4,1
42353,336,377,349,383,352,5.504,-3.504,-1.626,1.0000,0.9546,1.0000,1.0000,0.5583,4,1
42400,336,377,350,383,352,16.779,0.733,-1.015,1.0000,0.9546,1.0000,1.0000,0.5583,4,1
42453,336,377,350,383,352,4.725,-8.634,-0.725,1.0000,0.9546,1.0000,1.0000,0.5583,4,1
42500,336,377,350,383,352,12.511,-0.947,-1.748,1.0000,0.9546,1.0000,1.0000,0.5583,4,1
42553,336,377,350,383,352,16.817,-16.809,-2.237,1.0000,0.9546,1.0000,1.0000,0.5583,4,1
42602,336,377,350,383,353,18.115,-21.840,-8.824,1.0000,0.9546,1.0000,1.0000,0.5634,4,1
42649,337,378,351,385,355,23.130,-25.550,-11.473,1.0000,0.9628,1.0000,1.0000,0.5734,4,1
42703,340,379,353,389,358,12.038,-22.405,-18.595,1.0000,0.9710,1.0000,1.0000,0.5885,4,1
42752,344,378,358,393,362,16.588,-22.550,-7.313,1.0000,0.9628,1.0000,1.0000,0.6087,4,1
42803,348,377,367,401,369,-9.313,-24.832,-24.458,1.0000,0.9546,1.0000,1.0000,0.6439,4,1
42852,352,376,377,412,376,6.893,-14.366,-23.855,1.0000,0.9464,1.0000,1.0000,0.6791,4,1
42901,357,373,388,423,383,11.885,8.229,-31.740,1.0000,0.9219,1.0000,1.0000,0.7143,4,1
42953,362,370,395,434,393,-41.824,4.214,-57.634,1.0000,0.8973,1.0000,1.0000,0.7646,4,1
43002,367,370,400,441,405,10.679,24.870,-39.679,1.0000,0.8973,1.0000,1.0000,0.8250,4,1
43049,371,372,402,443,424,-13.908,29.153,-38.779,1.0000,0.9137,1.0000,1.0000,0.9206,4,1
43102,374,371,401,441,442,-23.687,26.588,-10.092,1.0000,0.9055,1.0000,1.0000,1.0000,4,1
43151,377,369,400,439,453,4.954,55.450,-28.611,1.0000,0.8891,1.0000,1.0000,1.0000,4,1
43202,379,367,400,438,459,-34.779,61.412,-19.061,1.0000,0.8728,1.0000,1.0000,1.0000,4,1
43252,380,364,400,436,462,-32.015,29.824,-25.878,1.0000,0.8482,1.0000,1.0000,1.0000,4,1
43301,380,363,400,436,464,1.000,41.099,-18.000,1.0000,0.8400,1.0000,1.0000,1.0000,4,1
43352,379,362,401,435,464,-2.603,0.473,2.130,1.0000,0.8318,1.0000,1.0000,1.0000,4,1
43401,381,361,401,436,464,15.160,-1.664,-8.015,1.0000,0.8237,1.0000,1.0000,1.0000,4,1
43452,381,360,402,435,464,-2.573,1.885,14.038,1.0000,0.8155,1.0000,1.0000,1.0000,4,1
43501,382,359,402,435,463,10.718,5.328,1.847,1.0000,0.8073,1.0000,1.0000,1.0000,4,1
43551,383,358,403,435,463,7.672,2.855,2.260,1.0000,0.7991,1.0000,1.0000,1.0000,4,1
43602,383,358,402,435,463,2.382,9.130,-0.061,1.0000,0.7991,1.0000,1.0000,1.0000,4,1
43651,382,357,402,435,462,17.458,-7.382,-1.519,1.0000,0.7909,1.0000,1.0000,1.0000,4,1
43702,382,358,403,434,462,2.885,10.153,2.221,1.0000,0.7991,1.0000,1.0000,1.0000,4,1
43751,382,358,403,434,461,7.939,-13.527,-0.634,1.0000,0.7991,1.0000,1.0000,1.0000,4,1
43803,383,357,402,434,461,1.435,3.504,9.244,1.0000,0.7909,1.0000,1.0000,1.0000,4,1
43852,383,357,403,434,461,15.489,-5.954,-1.679,1.0000,0.7909,1.0000,1.0000,1.0000,4,1
43901,383,357,403,434,461,6.107,3.473,2.489,1.0000,0.7909,1.0000,1.0000,1.0000,4,1
43952,383,356,403,434,461,3.466,4.595,2.115,1.0000,0.7827,1.0000,1.0000,1.0000,4,1
44001,383,356,403,434,461,17.901,3.351,-6.130,1.0000,0.7827,1.0000,1.0000,1.0000,4,1
44052,383,356,403,434,461,-3.443,-1.015,4.023,1.0000,0.7827,1.0000,1.0000,1.0000,4,1
44102,383,357,403,433,460,14.351,0.908,-4.641,1.0000,0.7909,1.0000,1.0000,1.0000,4,1
44151,383,357,403,434,460,0.511,-4.122,5.534,1.0000,0.7909,1.0000,1.0000,1.0000,4,1
44202,383,357,403,433,460,4.954,-0.664,-1.420,1.0000,0.7909,1.0000,1.0000,1.0000,4,1
44251,383,357,402,433,460,6.069,5.931,-2.458,1.0000,0.7909,1.0000,1.0000,1.0000,4,1
44302,382,358,402,432,459,-2.603,-1.870,-1.695,1.0000,0.7991,1.0000,1.0000,1.0000,4,1
44351,381,358,402,433,459,2.580,-1.885,2.176,1.0000,0.7991,1.0000,1.0000,1.0000,4,1
44401,381,359,402,432,459,7.794,-8.573,0.641,1.0000,0.8073,1.0000,1.0000,1.0000,4,1
44452,381,359,401,432,459,8.443,-10.130,0.534,1.0000,0.8073,1.0000,1.0000,1.0000,4,1
44501,269,227,311,376,431,4.565,-12.817,12.634,0.6005,0.0000,1.0000,0.9761,0.9559,4,0
44552,256,213,300,370,427,24.504,-15.573,1.313,0.5090,0.0000,1.0000,0.9234,0.9357,4,0
44601,255,214,299,370,427,-7.908,-9.481,7.687,0.5020,0.0000,1.0000,0.9234,0.9357,4,0
44652,254,217,298,370,426,10.687,-12.458,5.382,0.4950,0.0000,1.0000,0.9234,0.9307,4,0
44702,253,218,297,370,424,1.947,-23.847,11.130,0.4879,0.0000,1.0000,0.9234,0.9206,4,0
44753,251,221,296,369,422,9.733,-45.458,10.794,0.4739,0.0000,1.0000,0.9147,0.9106,4,0
44802,247,229,294,368,417,32.023,-58.863,19.412,0.4457,0.0000,1.0000,0.9059,0.8854,4,0
44853,243,233,292,366,410,15.855,-52.504,27.779,0.4176,0.0000,1.0000,0.8883,0.8502,4,0
44902,232,234,291,362,399,53.939,-60.588,14.519,0.3402,0.0000,1.0000,0.8532,0.7948,4,0
44953,217,234,292,355,383,-3.519,-32.573,35.847,0.2346,0.0000,1.0000,0.7917,0.7143,4,0
45003,207,230,286,347,348,37.901,-39.542,15.412,0.1643,0.0000,1.0000,0.7215,0.5382,4,0
45050,198,222,277,344,309,18.466,-25.588,28.374,0.1009,0.0000,0.9083,0.6951,0.3420,4,0
45103,190,213,264,339,276,18.702,-39.511,13.550,0.0446,0.0000,0.7601,0.6512,0.1759,4,0
45150,185,209,250,330,259,4.908,-10.977,21.427,0.0095,0.0000,0.6005,0.5722,0.0904,4,0
45201,180,205,238,321,251,19.931,-25.473,8.802,0.0000,0.0000,0.4636,0.4932,0.0501,4,0
45255,176,202,230,312,247,1.969,-15.130,13.496,0.0000,0.0000,0.3724,0.4142,0.0300,4,0
45302,174,202,225,307,243,40.260,-29.450,12.847,0.0000,0.0000,0.3154,0.3703,0.0098,4,0
45353,172,205,221,302,239,9.321,-10.504,8.321,0.0000,0.0000,0.2698,0.3264,0.0000,4,0
45400,171,209,219,298,236,21.099,-3.260,8.817,0.0000,0.0000,0.2470,0.2912,0.0000,4,0
45453,169,211,216,294,234,14.321,-5.954,2.092,0.0000,0.0000,0.2128,0.2561,0.0000,4,0
45500,169,211,215,292,232,6.122,-2.466,3.191,0.0000,0.0000,0.2014,0.2386,0.0000,4,0
45551,168,212,215,291,231,16.008,-4.092,1.092,0.0000,0.0000,0.2014,0.2298,0.0000,4,0
45603,168,212,215,290,230,8.412,-3.290,-2.550,0.0000,0.0000,0.2014,0.2210,0.0000,4,0
45650,167,212,214,290,229,18.870,-4.366,-2.305,0.0000,0.0000,0.1900,0.2210,0.0000,4,0
45701,167,211,214,289,229,24.290,-8.374,-0.718,0.0000,0.0000,0.1900,0.2122,0.0000,4,0
45754,166,212,214,289,228,18.870,0.252,-3.351,0.0000,0.0000,0.1900,0.2122,0.0000,4,0
45801,167,212,214,289,228,1.786,1.519,0.321,0.0000,0.0000,0.1900,0.2122,0.0000,4,0
45853,167,214,214,288,227,23.214,3.305,-10.947,0.0000,0.0000,0.1900,0.2034,0.0000,4,0
45900,166,213,213,288,227,12.458,-5.557,-1.550,0.0000,0.0000,0.1786,0.2034,0.0000,4,0
45951,166,214,213,287,227,50.130,-9.916,-5.557,0.0000,0.0000,0.1786,0.1947,0.0000,4,0
46004,165,217,214,286,226,25.687,-2.038,-3.435,0.0000,0.0000,0.1900,0.1859,0.0000,4,0
46051,165,220,214,286,225,19.221,3.099,-1.588,0.0000,0.0000,0.1900,0.1859,0.0000,4,0
46102,165,223,214,285,225,38.366,-6.863,-7.763,0.0000,0.0000,0.1900,0.1771,0.0000,4,0
46150,165,225,214,284,225,13.901,-0.115,1.427,0.0000,0.0000,0.1900,0.1683,0.0000,4,0
46201,165,228,214,282,224,20.679,0.580,5.053,0.0000,0.0000,0.1900,0.1508,0.0000,4,0
46252,165,233,213,282,224,17.725,10.496,1.786,0.0000,0.0000,0.1786,0.1508,0.0000,4,0
46301,165,239,213,282,224,22.168,14.275,-2.031,0.0000,0.0000,0.1786,0.1508,0.0000,4,0
46352,165,242,211,282,224,11.397,10.977,-0.450,0.0000,0.0000,0.1558,0.1508,0.0000,4,0
46403,165,246,211,282,223,19.130,10.359,-5.565,0.0000,0.0000,0.1558,0.1508,0.0000,4,0
46451,165,248,211,282,222,-3.550,13.641,-1.282,0.0000,0.0000,0.1558,0.1508,0.0000,4,0
46502,166,252,211,282,222,15.908,10.641,-7.321,0.0000,0.0000,0.1558,0.1508,0.0000,4,0
46551,166,255,211,283,221,-6.099,10.336,-3.191,0.0000,0.0000,0.1558,0.1595,0.0000,4,0
46602,166,257,210,283,221,3.527,4.794,-2.992,0.0000,0.0000,0.1444,0.1595,0.0000,4,0
46649,166,259,210,283,220,6.122,1.206,-8.229,0.0000,0.0000,0.1444,0.1595,0.0000,4,0
46702,166,260,210,283,219,9.382,-3.626,-3.443,0.0000,0.0000,0.1444,0.1595,0.0000,4,0
46750,166,261,209,283,219,13.275,0.092,-7.061,0.0000,0.0052,0.1330,0.1595,0.0000,4,0
46801,166,262,209,283,218,4.626,-0.687,-0.489,0.0000,0.0134,0.1330,0.1595,0.0000,4,0
46854,167,262,209,283,217,15.084,2.038,-5.214,0.0000,0.0134,0.1330,0.1595,0.0000,4,0
46901,167,263,209,283,217,9.336,-0.511,-9.840,0.0000,0.0216,0.1330,0.1595,0.0000,4,0
46954,166,263,209,282,216,7.641,-2.977,-10.351,0.0000,0.0216,0.1330,0.1508,0.0000,4,0
47001,167,261,208,282,216,4.870,-2.305,-0.641,0.0000,0.0052,0.1216,0.1508,0.0000,4,0
47053,167,260,208,281,216,5.282,2.702,0.183,0.0000,0.0000,0.1216,0.1420,0.0000,4,0
47102,167,259,207,280,216,0.603,4.061,-0.855,0.0000,0.0000,0.1101,0.1332,0.0000,4,0
47153,167,258,206,279,215,1.824,2.824,-2.473,0.0000,0.0000,0.0987,0.1244,0.0000,4,0
47200,167,257,205,279,215,4.359,2.405,-3.687,0.0000,0.0000,0.0873,0.1244,0.0000,4,0
47253,167,257,204,279,215,8.412,-1.359,-0.626,0.0000,0.0000,0.0759,0.1244,0.0000,4,0
47300,167,256,204,279,215,18.145,-7.962,-7.244,0.0000,0.0000,0.0759,0.1244,0.0000,4,0
47352,167,257,204,279,215,15.672,-8.336,-5.031,0.0000,0.0000,0.0759,0.1244,0.0000,4,0
47401,167,257,204,279,215,14.473,-6.038,-8.786,0.0000,0.0000,0.0759,0.1244,0.0000,4,0
47452,168,257,204,279,215,13.489,-5.496,-6.244,0.0000,0.0000,0.0759,0.1244,0.0000,4,0
47499,169,257,204,279,215,10.229,-1.252,0.313,0.0000,0.0000,0.0759,0.1244,0.0000,4,0
47552,168,257,204,278,215,12.550,-1.473,-9.656,0.0000,0.0000,0.0759,0.1156,0.0000,4,0
47599,169,258,204,278,215,6.504,-1.061,-1.023,0.0000,0.0000,0.0759,0.1156,0.0000,4,0
47651,169,257,204,278,214,12.351,-0.832,-3.038,0.0000,0.0000,0.0759,0.1156,0.0000,4,0
47704,169,257,204,278,213,4.763,2.191,-2.924,0.0000,0.0000,0.0759,0.1156,0.0000,4,0
47751,168,257,204,277,214,6.519,-1.748,-1.099,0.0000,0.0000,0.0759,0.1069,0.0000,4,0
47802,169,257,204,277,214,12.947,-2.489,-1.496,0.0000,0.0000,0.0759,0.1069,0.0000,4,0
47851,171,257,205,278,214,-25.374,-2.840,-11.885,0.0000,0.0000,0.0873,0.1156,0.0000,4,0
47903,171,257,205,278,213,1.427,2.626,-3.450,0.0000,0.0000,0.0873,0.1156,0.0000,4,0
47952,171,257,205,277,213,3.137,3.802,-2.863,0.0000,0.0000,0.0873,0.1069,0.0000,4,0
48003,171,256,205,277,213,3.321,3.664,3.763,0.0000,0.0000,0.0873,0.1069,0.0000,4,0
48050,171,256,205,278,213,3.611,5.389,-6.481,0.0000,0.0000,0.0873,0.1156,0.0000,4,0
48103,171,256,205,278,213,5.176,2.779,-1.557,0.0000,0.0000,0.0873,0.1156,0.0000,4,0
48150,171,256,205,278,213,5.534,4.634,1.443,0.0000,0.0000,0.0873,0.1156,0.0000,4,0
48202,171,255,205,277,213,3.237,5.611,0.466,0.0000,0.0000,0.0873,0.1069,0.0000,4,0
48253,170,255,204,277,213,7.855,5.740,0.160,0.0000,0.0000,0.0759,0.1069,0.0000,4,0
48302,170,254,204,277,213,3.580,3.519,-1.603,0.0000,0.0000,0.0759,0.1069,0.0000,4,0
48353,170,254,205,276,213,7.076,4.878,-1.015,0.0000,0.0000,0.0873,0.0981,0.0000,4,0
48400,170,254,205,276,213,4.939,4.695,-2.733,0.0000,0.0000,0.0873,0.0981,0.0000,4,0
48451,170,254,205,276,213,5.244,1.053,-1.855,0.0000,0.0000,0.0873,0.0981,0.0000,4,0
48501,171,254,205,277,213,13.672,-0.397,-4.282,0.0000,0.0000,0.0873,0.1069,0.0000,4,0
48552,171,254,205,276,212,8.115,-0.122,2.969,0.0000,0.0000,0.0873,0.0981,0.0000,4,0
48603,171,253,205,277,212,9.794,2.855,3.183,0.0000,0.0000,0.0873,0.1069,0.0000,4,0
48650,171,254,205,276,212,4.656,3.908,6.511,0.0000,0.0000,0.0873,0.0981,0.0000,4,0
48701,171,254,205,276,212,8.069,9.198,5.206,0.0000,0.0000,0.0873,0.0981,0.0000,4,0
48750,170,254,205,276,212,10.748,4.374,4.771,0.0000,0.0000,0.0873,0.0981,0.0000,4,0
48802,170,254,205,276,212,11.511,3.733,7.023,0.0000,0.0000,0.0873,0.0981,0.0000,4,0
48853,170,254,205,276,211,4.840,5.863,5.885,0.0000,0.0000,0.0873,0.0981,0.0000,4,0
48900,170,254,204,276,211,8.527,1.695,4.313,0.0000,0.0000,0.0759,0.0981,0.0000,4,0
48953,169,254,205,276,211,11.153,1.916,4.038,0.0000,0.0000,0.0873,0.0981,0.0000,4,0
49000,169,255,205,275,210,4.359,4.290,3.137,0.0000,0.0000,0.0873,0.0893,0.0000,4,0
49052,169,255,205,275,210,10.397,6.168,4.427,0.0000,0.0000,0.0873,0.0893,0.0000,4,0
49103,169,255,205,276,210,2.015,9.702,9.252,0.0000,0.0000,0.0873,0.0981,0.0000,4,0
49152,169,255,205,276,210,1.298,10.588,8.221,0.0000,0.0000,0.0873,0.0981,0.0000,4,0
49203,168,256,205,276,210,1.229,6.817,11.221,0.0000,0.0000,0.0873,0.0981,0.0000,4,0
49250,168,256,205,276,209,5.481,9.214,5.870,0.0000,0.0000,0.0873,0.0981,0.0000,4,0
49303,167,257,205,276,209,3.511,6.985,7.573,0.0000,0.0000,0.0873,0.0981,0.0000,4,0
49351,167,257,205,276,209,8.649,-0.206,5.092,0.0000,0.0000,0.0873,0.0981,0.0000,4,0
# Gesture ID set to 7
49402,167,258,204,276,209,4.344,0.939,1.542,0.0000,0.0000,0.0759,0.0981,0.0000,7,0
49451,167,258,205,276,209,6.595,-1.832,0.473,0.0000,0.0000,0.0873,0.0981,0.0000,7,0
49502,167,259,204,276,209,7.496,-1.031,-0.267,0.0000,0.0000,0.0759,0.0981,0.0000,7,0
49549,167,259,204,276,209,11.840,-1.267,0.473,0.0000,0.0000,0.0759,0.0981,0.0000,7,0
49602,167,260,204,276,209,6.855,2.511,2.580,0.0000,0.0000,0.0759,0.0981,0.0000,7,0
49654,167,260,204,276,208,10.412,-2.176,1.649,0.0000,0.0000,0.0759,0.0981,0.0000,7,0
49701,167,260,204,276,208,6.634,2.527,0.695,0.0000,0.0000,0.0759,0.0981,0.0000,7,0
49752,167,260,204,276,208,0.733,4.008,-2.405,0.0000,0.0000,0.0759,0.0981,0.0000,7,0
49801,166,260,204,276,208,4.710,8.496,-4.756,0.0000,0.0000,0.0759,0.0981,0.0000,7,0
49852,167,261,204,276,207,5.359,7.687,-0.130,0.0000,0.0052,0.0759,0.0981,0.0000,7,0
49901,167,261,204,276,207,2.817,11.511,2.198,0.0000,0.0052,0.0759,0.0981,0.0000,7,0
49953,166,261,204,276,207,0.786,6.466,1.611,0.0000,0.0052,0.0759,0.0981,0.0000,7,0
50000,166,262,204,275,207,7.145,2.405,-0.939,0.0000,0.0134,0.0759,0.0893,0.0000,7,0
50053,166,262,204,276,207,3.237,2.450,2.305,0.0000,0.0134,0.0759,0.0981,0.0000,7,0
50100,167,262,204,276,207,-0.229,5.275,0.481,0.0000,0.0134,0.0759,0.0981,0.0000,7,0
50151,167,262,204,275,207,2.244,5.076,1.969,0.0000,0.0134,0.0759,0.0893,0.0000,7,0
50200,167,262,203,275,207,1.336,6.649,1.046,0.0000,0.0134,0.0645,0.0893,0.0000,7,0
50252,167,262,204,275,207,1.763,5.542,4.038,0.0000,0.0134,0.0759,0.0893,0.0000,7,0
50299,167,262,204,275,207,0.504,4.985,3.626,0.0000,0.0134,0.0759,0.0893,0.0000,7,0
50352,167,262,204,275,208,-0.137,5.496,-1.084,0.0000,0.0134,0.0759,0.0893,0.0000,7,0
50403,167,262,204,275,208,0.672,5.145,-1.626,0.0000,0.0134,0.0759,0.0893,0.0000,7,0
50450,167,262,204,275,208,6.466,1.107,-4.313,0.0000,0.0134,0.0759,0.0893,0.0000,7,0
50504,167,262,204,276,208,9.053,2.969,-1.466,0.0000,0.0134,0.0759,0.0981,0.0000,7,0
50551,167,262,203,276,208,5.466,1.985,-0.954,0.0000,0.0134,0.0645,0.0981,0.0000,7,0
50602,166,262,204,276,207,8.344,0.863,-1.786,0.0000,0.0134,0.0759,0.0981,0.0000,7,0
50651,166,262,204,276,207,6.527,-1.687,0.779,0.0000,0.0134,0.0759,0.0981,0.0000,7,0
50702,166,262,204,276,207,7.695,-1.992,-0.580,0.0000,0.0134,0.0759,0.0981,0.0000,7,0
50751,166,262,203,276,208,7.366,1.893,-0.992,0.0000,0.0134,0.0645,0.0981,0.0000,7,0
50803,166,262,203,275,207,3.611,3.031,-3.511,0.0000,0.0134,0.0645,0.0893,0.0000,7,0
50850,166,261,203,275,207,6.679,6.435,-2.275,0.0000,0.0052,0.0645,0.0893,0.0000,7,0
50903,166,262,203,275,207,-1.084,5.069,-2.420,0.0000,0.0134,0.0645,0.0893,0.0000,7,0
50950,166,262,204,275,207,6.962,2.420,-3.542,0.0000,0.0134,0.0759,0.0893,0.0000,7,0
51003,165,261,204,275,207,3.748,-0.954,-3.504,0.0000,0.0052,0.0759,0.0893,0.0000,7,0
51050,165,261,204,275,207,6.595,0.580,-1.458,0.0000,0.0052,0.0759,0.0893,0.0000,7,0
51102,165,261,204,275,207,3.802,0.603,-1.588,0.0000,0.0052,0.0759,0.0893,0.0000,7,0
51151,165,261,203,275,207,6.382,-0.260,-3.031,0.0000,0.0052,0.0645,0.0893,0.0000,7,0
51202,165,261,204,275,207,7.687,-1.260,0.115,0.0000,0.0052,0.0759,0.0893,0.0000,7,0
51249,165,261,204,275,207,6.809,-0.359,-0.985,0.0000,0.0052,0.0759,0.0893,0.0000,7,0
51302,165,261,203,275,207,6.084,1.702,1.557,0.0000,0.0052,0.0645,0.0893,0.0000,7,0
51353,165,260,204,275,207,6.626,0.313,-1.832,0.0000,0.0000,0.0759,0.0893,0.0000,7,0
51401,165,261,203,275,207,6.519,1.916,-0.840,0.0000,0.0052,0.0645,0.0893,0.0000,7,0
51454,165,261,203,275,207,6.183,2.466,-0.863,0.0000,0.0052,0.0645,0.0893,0.0000,7,0
51501,165,261,204,275,207,4.351,1.740,0.855,0.0000,0.0052,0.0759,0.0893,0.0000,7,0
51552,165,261,204,275,206,5.611,2.725,-0.206,0.0000,0.0052,0.0759,0.0893,0.0000,7,0
51601,165,261,204,275,206,4.366,0.489,-0.962,0.0000,0.0052,0.0759,0.0893,0.0000,7,0
51652,165,261,204,275,207,8.550,1.160,-0.267,0.0000,0.0052,0.0759,0.0893,0.0000,7,0
51700,165,261,204,275,207,5.137,1.015,1.962,0.0000,0.0052,0.0759,0.0893,0.0000,7,0
51753,165,259,204,275,207,7.244,0.412,-0.588,0.0000,0.0000,0.0759,0.0893,0.0000,7,0
51800,165,259,204,275,207,4.527,-0.298,-0.267,0.0000,0.0000,0.0759,0.0893,0.0000,7,0
51851,165,259,204,275,207,7.153,0.153,-0.214,0.0000,0.0000,0.0759,0.0893,0.0000,7,0
51904,165,259,203,274,206,5.351,-0.153,-2.473,0.0000,0.0000,0.0645,0.0805,0.0000,7,0
51951,165,259,204,275,207,7.687,0.740,0.542,0.0000,0.0000,0.0759,0.0893,0.0000,7,0
52003,164,259,204,275,207,4.542,0.947,1.427,0.0000,0.0000,0.0759,0.0893,0.0000,7,0
52052,164,259,203,275,207,6.336,1.374,-2.344,0.0000,0.0000,0.0645,0.0893,0.0000,7,0
52103,164,259,203,275,207,7.748,0.595,-1.634,0.0000,0.0000,0.0645,0.0893,0.0000,7,0
52150,164,259,203,275,207,6.420,-0.550,0.405,0.0000,0.0000,0.0645,0.0893,0.0000,7,0
52203,164,259,203,274,206,8.618,2.702,1.176,0.0000,0.0000,0.0645,0.0805,0.0000,7,0
52251,164,259,204,274,206,6.137,2.107,1.015,0.0000,0.0000,0.0759,0.0805,0.0000,7,0
52302,164,259,204,275,206,6.947,2.298,0.176,0.0000,0.0000,0.0759,0.0893,0.0000,7,0
52349,164,259,203,275,206,6.053,0.931,0.519,0.0000,0.0000,0.0645,0.0893,0.0000,7,0
52402,164,258,203,274,206,6.748,2.962,0.649,0.0000,0.0000,0.0645,0.0805,0.0000,7,0
52453,164,259,203,274,206,5.099,1.748,-0.221,0.0000,0.0000,0.0645,0.0805,0.0000,7,0
52500,164,258,203,274,206,5.420,1.237,0.595,0.0000,0.0000,0.0645,0.0805,0.0000,7,0
52554,164,258,203,274,206,6.389,0.313,-1.458,0.0000,0.0000,0.0645,0.0805,0.0000,7,0
52601,164,258,203,273,206,5.496,0.191,0.771,0.0000,0.0000,0.0645,0.0717,0.0000,7,0
52652,164,258,203,273,206,6.221,0.389,-0.534,0.0000,0.0000,0.0645,0.0717,0.0000,7,0
52699,164,258,203,273,206,6.244,1.840,0.221,0.0000,0.0000,0.0645,0.0717,0.0000,7,0
52752,164,258,203,273,206,5.672,1.855,0.649,0.0000,0.0000,0.0645,0.0717,0.0000,7,1
52799,322,371,342,377,344,7.435,3.588,1.031,0.9734,0.9055,1.0000,0.9849,0.5181,7,1
52853,336,380,354,387,356,5.702,2.603,-1.664,1.0000,0.9792,1.0000,1.0000,0.5785,7,1
52902,336,381,355,387,357,9.229,3.519,-3.802,1.0000,0.9874,1.0000,1.0000,0.5835,7,1
52953,337,381,355,387,357,7.481,0.679,-1.863,1.0000,0.9874,1.0000,1.0000,0.5835,7,1
53002,337,381,355,388,357,15.588,-1.511,-2.015,1.0000,0.9874,1.0000,1.0000,0.5835,7,1
53049,337,382,355,388,356,23.664,-2.695,-4.687,1.0000,0.9955,1.0000,1.0000,0.5785,7,1
53102,337,383,356,391,357,40.870,-7.588,-8.740,1.0000,1.0000,1.0000,1.0000,0.5835,7,1
53152,337,385,358,396,358,30.718,-9.122,-12.076,1.0000,1.0000,1.0000,1.0000,0.5885,7,1
53203,336,387,360,400,362,32.511,-13.679,-17.649,1.0000,1.0000,1.0000,1.0000,0.6087,7,1
53252,337,389,363,404,367,141.603,12.237,-57.733,1.0000,1.0000,1.0000,1.0000,0.6338,7,1
53301,337,392,368,410,378,91.634,0.565,-64.977,1.0000,1.0000,1.0000,1.0000,0.6892,7,1
53352,338,398,379,418,393,136.847,31.427,-94.321,1.0000,1.0000,1.0000,1.0000,0.7646,7,1
53401,338,403,389,426,411,72.290,73.710,-100.099,1.0000,1.0000,1.0000,1.0000,0.8552,7,1
53453,337,407,400,434,425,61.954,57.740,-83.031,1.0000,1.0000,1.0000,1.0000,0.9257,7,1
53502,338,416,405,443,439,57.855,37.565,-91.702,1.0000,1.0000,1.0000,1.0000,0.9961,7,1
53549,339,423,407,448,452,37.290,43.664,-71.534,1.0000,1.0000,1.0000,1.0000,1.0000,7,1
53602,338,426,407,450,461,34.321,45.130,-42.580,1.0000,1.0000,1.0000,1.0000,1.0000,7,1
53651,338,429,408,451,466,32.260,51.313,-37.420,1.0000,1.0000,1.0000,1.0000,1.0000,7,1
53703,338,431,407,450,468,11.992,38.496,-21.405,1.0000,1.0000,1.0000,1.0000,1.0000,7,1
53752,338,433,406,450,469,18.954,28.031,-18.351,1.0000,1.0000,1.0000,1.0000,1.0000,7,1
53803,338,433,405,449,469,17.618,7.885,-1.725,1.0000,1.0000,1.0000,1.0000,1.0000,7,1
53852,338,433,405,449,469,19.786,19.740,-3.038,1.0000,1.0000,1.0000,1.0000,1.0000,7,1
53899,338,434,405,448,469,15.542,3.916,1.099,1.0000,1.0000,1.0000,1.0000,1.0000,7,1
53952,339,434,403,448,469,18.947,11.710,-7.458,1.0000,1.0000,1.0000,1.0000,1.0000,7,1
54002,338,434,403,447,468,15.053,5.595,-5.183,1.0000,1.0000,1.0000,1.0000,1.0000,7,1
54053,338,434,403,446,469,14.969,4.107,-3.122,1.0000,1.0000,1.0000,1.0000,1.0000,7,1
54102,338,434,403,446,468,7.702,2.748,-0.198,1.0000,1.0000,1.0000,1.0000,1.0000,7,1
54151,338,435,403,446,468,23.679,9.809,-1.076,1.0000,1.0000,1.0000,1.0000,1.0000,7,1
54202,338,434,402,446,468,7.221,1.641,2.802,1.0000,1.0000,1.0000,1.0000,1.0000,7,1
54251,338,434,403,446,467,7.641,3.725,2.641,1.0000,1.0000,1.0000,1.0000,1.0000,7,1
54303,338,434,402,446,468,1.893,1.374,0.008,1.0000,1.0000,1.0000,1.0000,1.0000,7,1
54352,338,434,403,445,467,5.809,5.053,0.206,1.0000,1.0000,1.0000,1.0000,1.0000,7,1
54399,338,434,402,445,467,5.977,-0.336,0.099,1.0000,1.0000,1.0000,1.0000,1.0000,7,1
54452,338,434,402,445,468,-0.847,1.214,3.153,1.0000,1.0000,1.0000,1.0000,1.0000,7,1
54501,338,434,402,445,467,11.611,4.779,-1.489,1.0000,1.0000,1.0000,1.0000,1.0000,7,1
54552,338,434,402,445,468,4.748,3.137,0.519,1.0000,1.0000,1.0000,1.0000,1.0000,7,1
54602,338,434,402,445,468,7.099,-0.687,1.397,1.0000,1.0000,1.0000,1.0000,1.0000,7,1
54653,338,434,402,445,467,4.496,2.695,1.282,1.0000,1.0000,1.0000,1.0000,1.0000,7,1
54702,338,434,402,445,467,1.573,1.221,3.237,1.0000,1.0000,1.0000,1.0000,1.0000,7,1
54751,338,434,402,445,467,6.290,3.885,0.214,1.0000,1.0000,1.0000,1.0000,1.0000,7,1
54802,338,434,401,444,467,6.420,1.023,1.176,1.0000,1.0000,1.0000,1.0000,1.0000,7,1
54851,338,434,401,443,467,7.725,4.374,0.389,1.0000,1.0000,1.0000,1.0000,1.0000,7,1
54903,338,434,401,444,467,3.198,3.023,-0.099,1.0000,1.0000,1.0000,1.0000,1.0000,7,1
54952,339,434,401,444,466,5.786,2.344,0.275,1.0000,1.0000,1.0000,1.0000,1.0000,7,1
55001,338,434,401,443,466,4.855,2.466,1.298,1.0000,1.0000,1.0000,1.0000,1.0000,7,1
55052,338,433,401,443,466,6.809,2.107,-2.420,1.0000,1.0000,1.0000,1.0000,1.0000,7,1
55101,338,433,400,442,465,5.855,3.847,1.420,1.0000,1.0000,1.0000,1.0000,1.0000,7,1
55153,338,431,399,442,465,12.649,-2.672,-3.947,1.0000,1.0000,1.0000,1.0000,1.0000,7,1
55202,234,389,337,411,448,3.130,-2.359,1.427,0.3542,1.0000,1.0000,1.0000,1.0000,7,0
55251,169,359,297,392,434,-3.183,6.000,2.237,0.0000,0.8073,1.0000,1.0000,0.9710,7,0
55302,163,354,293,390,430,-23.000,8.977,8.695,0.0000,0.7664,1.0000,1.0000,0.9508,7,0
55351,162,348,293,389,426,-19.931,-11.321,23.374,0.0000,0.7173,1.0000,1.0000,0.9307,7,0
55402,161,339,292,385,415,-49.099,-10.412,42.786,0.0000,0.6436,1.0000,1.0000,0.8754,7,0
55452,160,323,293,378,397,-25.969,-10.099,35.244,0.0000,0.5126,1.0000,0.9937,0.7848,7,0
55503,160,300,290,365,376,-87.076,-28.389,44.168,0.0000,0.3244,1.0000,0.8795,0.6791,7,0
55552,159,283,283,353,358,-68.580,-20.870,52.779,0.0000,0.1853,0.9767,0.7742,0.5885,7,0
55599,159,269,276,339,330,-62.565,-10.588,42.748,0.0000,0.0707,0.8969,0.6512,0.4476,7,0
55652,157,262,268,327,300,-92.679,-34.603,39.885,0.0000,0.0134,0.8057,0.5459,0.2967,7,0
55701,156,259,261,320,283,-89.962,-42.542,47.908,0.0000,0.0000,0.7259,0.4844,0.2111,7,0
55753,155,259,255,314,271,-107.763,-28.298,39.023,0.0000,0.0000,0.6575,0.4317,0.1507,7,0
55802,153,261,251,312,270,-130.206,-29.832,46.260,0.0000,0.0052,0.6119,0.4142,0.1457,7,0
55853,149,266,248,315,272,-206.672,-6.412,74.649,0.0000,0.0461,0.5777,0.4405,0.1558,7,0
55902,145,270,246,317,259,-216.321,50.481,84.382,0.0000,0.0789,0.5548,0.4581,0.0904,7,0
55949,142,267,244,314,245,-95.183,76.634,79.511,0.0000,0.0543,0.5320,0.4317,0.0199,7,0
56002,140,264,242,311,239,-47.473,70.656,55.061,0.0000,0.0298,0.5092,0.4054,0.0000,7,0
56050,140,264,241,308,237,-57.908,36.420,47.527,0.0000,0.0298,0.4978,0.3791,0.0000,7,0
56101,139,265,240,306,236,-12.992,13.527,23.496,0.0000,0.0379,0.4864,0.3615,0.0000,7,0
56154,139,264,240,304,235,-3.038,1.748,17.038,0.0000,0.0298,0.4864,0.3439,0.0000,7,0
56201,139,263,240,303,235,0.534,2.290,1.969,0.0000,0.0216,0.4864,0.3351,0.0000,7,0
56254,139,262,239,303,234,1.260,11.672,-0.885,0.0000,0.0134,0.4750,0.3351,0.0000,7,0
56301,139,262,238,302,234,3.947,13.298,-6.786,0.0000,0.0134,0.4636,0.3264,0.0000,7,0
56353,139,262,238,301,235,10.656,2.649,-7.153,0.0000,0.0134,0.4636,0.3176,0.0000,7,0
56402,140,262,238,300,236,14.122,0.748,-3.962,0.0000,0.0134,0.4636,0.3088,0.0000,7,0
56453,140,262,238,300,235,6.756,4.939,-0.931,0.0000,0.0134,0.4636,0.3088,0.0000,7,0
56502,141,262,237,300,235,7.962,4.924,-2.733,0.0000,0.0134,0.4522,0.3088,0.0000,7,0
56553,141,262,237,301,235,10.450,0.695,-2.336,0.0000,0.0134,0.4522,0.3176,0.0000,7,0
56603,141,264,237,301,236,18.122,-8.046,-5.740,0.0000,0.0298,0.4522,0.3176,0.0000,7,0
56654,141,265,237,302,236,24.389,-12.611,-6.275,0.0000,0.0379,0.4522,0.3264,0.0000,7,0
56701,141,266,237,301,237,9.000,-11.008,-10.053,0.0000,0.0461,0.4522,0.3176,0.0000,7,1
56750,311,374,360,392,360,20.427,-1.153,-8.450,0.8960,0.9301,1.0000,1.0000,0.5986,7,1
56803,326,384,370,400,371,-4.130,-2.328,-2.099,1.0000,1.0000,1.0000,1.0000,0.6539,7,1
56850,327,385,371,401,372,10.504,-1.542,1.420,1.0000,1.0000,1.0000,1.0000,0.6590,7,1
56904,327,385,371,401,373,-0.008,10.985,5.435,1.0000,1.0000,1.0000,1.0000,0.6640,7,1
56951,328,385,372,401,374,-1.496,10.527,8.053,1.0000,1.0000,1.0000,1.0000,0.6690,7,1
57000,327,386,372,402,375,-0.321,6.252,3.985,1.0000,1.0000,1.0000,1.0000,0.6741,7,1
57053,327,388,373,402,379,10.389,1.328,-4.573,1.0000,1.0000,1.0000,1.0000,0.6942,7,1
57100,327,390,373,404,383,45.947,-6.573,-13.519,1.0000,1.0000,1.0000,1.0000,0.7143,7,1
57153,327,392,375,406,391,129.107,-13.351,-48.924,1.0000,1.0000,1.0000,1.0000,0.7546,7,1
57201,328,394,377,410,400,156.321,-24.969,-56.000,1.0000,1.0000,1.0000,1.0000,0.7999,7,1
57254,328,398,382,415,406,188.855,-25.405,-81.115,1.0000,1.0000,1.0000,1.0000,0.8301,7,1
57303,331,401,385,420,411,201.969,-18.221,-84.427,1.0000,1.0000,1.0000,1.0000,0.8552,7,1
57350,333,404,392,427,416,248.473,1.168,-86.466,1.0000,1.0000,1.0000,1.0000,0.8804,7,1
57403,335,410,398,437,425,250.130,11.687,-86.275,1.0000,1.0000,1.0000,1.0000,0.9257,7,1
57450,337,415,403,444,434,180.649,7.435,-74.176,1.0000,1.0000,1.0000,1.0000,0.9710,7,1
57504,338,422,404,449,446,156.198,11.718,-53.710,1.0000,1.0000,1.0000,1.0000,1.0000,7,1
57551,338,426,404,451,453,106.962,6.725,-28.221,1.0000,1.0000,1.0000,1.0000,1.0000,7,1
57600,338,428,404,450,459,70.931,41.122,-32.046,1.0000,1.0000,1.0000,1.0000,1.0000,7,1
57653,337,429,404,450,461,41.878,33.603,-19.954,1.0000,1.0000,1.0000,1.0000,1.0000,7,1
57700,336,429,403,449,462,51.282,9.183,-8.573,1.0000,1.0000,1.0000,1.0000,1.0000,7,1
57753,335,430,402,448,462,34.053,19.359,-14.260,1.0000,1.0000,1.0000,1.0000,1.0000,7,1
57803,335,430,402,448,462,-2.748,-5.916,1.198,1.0000,1.0000,1.0000,1.0000,1.0000,7,1
57850,335,430,402,447,462,0.840,1.718,4.626,1.0000,1.0000,1.0000,1.0000,1.0000,7,1
57903,335,430,402,447,462,4.550,-11.588,6.832,1.0000,1.0000,1.0000,1.0000,1.0000,7,1
57950,335,431,402,446,462,5.023,0.832,4.634,1.0000,1.0000,1.0000,1.0000,1.0000,7,1
58003,335,431,401,446,463,0.275,-2.824,3.450,1.0000,1.0000,1.0000,1.0000,1.0000,7,1
58052,335,431,401,446,463,-7.855,1.786,3.901,1.0000,1.0000,1.0000,1.0000,1.0000,7,1
58100,335,431,401,446,463,4.137,2.435,-0.947,1.0000,1.0000,1.0000,1.0000,1.0000,7,1
58153,335,431,401,446,463,15.305,10.122,-1.992,1.0000,1.0000,1.0000,1.0000,1.0000,7,1
58200,335,431,401,446,463,7.221,-5.099,2.168,1.0000,1.0000,1.0000,1.0000,1.0000,7,1
58253,335,431,400,446,463,10.405,4.435,-1.069,1.0000,1.0000,1.0000,1.0000,1.0000,7,1
58302,335,431,400,445,463,6.718,0.252,2.641,1.0000,1.0000,1.0000,1.0000,1.0000,7,1
58349,335,431,401,445,462,4.122,3.420,1.870,1.0000,1.0000,1.0000,1.0000,1.0000,7,1
58403,335,431,401,445,463,3.046,1.252,0.687,1.0000,1.0000,1.0000,1.0000,1.0000,7,1
58452,335,430,401,445,463,0.969,4.466,0.878,1.0000,1.0000,1.0000,1.0000,1.0000,7,1
58503,335,431,401,445,463,4.153,-1.115,0.603,1.0000,1.0000,1.0000,1.0000,1.0000,7,1
58552,335,431,401,445,463,7.489,5.252,-0.824,1.0000,1.0000,1.0000,1.0000,1.0000,7,1
58599,335,431,401,444,463,7.237,1.382,2.420,1.0000,1.0000,1.0000,1.0000,1.0000,7,1
58653,336,431,401,444,463,0.542,-2.229,2.443,1.0000,1.0000,1.0000,1.0000,1.0000,7,1
58702,336,430,400,444,463,6.557,-2.160,1.084,1.0000,1.0000,1.0000,1.0000,1.0000,7,1
58753,336,428,400,443,462,13.947,-14.389,1.298,1.0000,1.0000,1.0000,1.0000,1.0000,7,1
58802,336,424,399,443,461,1.229,-6.275,2.107,1.0000,1.0000,1.0000,1.0000,1.0000,7,1
58851,337,421,397,442,459,3.168,0.573,6.870,1.0000,1.0000,1.0000,1.0000,1.0000,7,1
58902,337,418,397,440,457,-11.573,11.366,26.802,1.0000,1.0000,1.0000,1.0000,1.0000,7,1
58952,336,414,397,439,453,-75.313,-11.748,29.092,1.0000,1.0000,1.0000,1.0000,1.0000,7,1
59003,177,327,302,383,408,-75.557,4.336,34.168,0.0000,0.5454,1.0000,1.0000,0.8401,7,0
59052,159,306,289,368,390,-61.405,10.435,20.260,0.0000,0.3735,1.0000,0.9059,0.7496,7,0
59101,157,294,284,358,376,-79.221,-7.840,35.641,0.0000,0.2753,0.9881,0.8181,0.6791,7,0
59152,157,282,279,349,359,-56.580,-10.534,38.252,0.0000,0.1771,0.9311,0.7390,0.5936,7,0
59201,155,273,275,340,340,-83.229,-5.870,44.115,0.0000,0.1034,0.8855,0.6600,0.4979,7,0
59253,153,268,270,334,324,-122.336,-7.595,53.099,0.0000,0.0625,0.8285,0.6073,0.4174,7,0
59302,151,265,266,329,316,-144.550,-0.267,60.153,0.0000,0.0379,0.7829,0.5634,0.3772,7,0
59351,148,265,263,327,313,-157.382,-0.908,59.473,0.0000,0.0379,0.7487,0.5459,0.3621,7,0
59402,143,270,259,327,310,-210.229,11.382,81.435,0.0000,0.0789,0.7031,0.5459,0.3470,7,0
59451,140,272,257,325,298,-116.328,24.275,44.740,0.0000,0.0952,0.6803,0.5283,0.2866,7,0
59502,139,271,253,320,283,-50.076,25.435,14.687,0.0000,0.0870,0.6347,0.4844,0.2111,7,0
59552,138,270,250,316,273,1.412,38.794,25.076,0.0000,0.0789,0.6005,0.4493,0.1608,7,0
59601,138,268,248,313,266,2.458,14.191,7.901,0.0000,0.0625,0.5777,0.4230,0.1256,7,0
59652,139,267,246,310,262,25.130,13.863,1.947,0.0000,0.0543,0.5548,0.3966,0.1054,7,0
59701,139,266,245,308,261,23.084,0.802,-1.275,0.0000,0.0461,0.5434,0.3791,0.1004,7,0
59752,139,266,244,306,259,17.344,-4.008,-5.695,0.0000,0.0461,0.5320,0.3615,0.0904,7,0
59801,140,266,242,306,258,12.893,1.649,-2.855,0.0000,0.0461,0.5092,0.3615,0.0853,7,0
59853,141,268,242,305,256,12.214,-0.229,2.618,0.0000,0.0625,0.5092,0.3527,0.0753,7,0
59902,142,268,241,304,255,7.847,4.267,-0.145,0.0000,0.0625,0.4978,0.3439,0.0702,7,0
59953,142,268,241,304,255,12.336,0.962,-1.466,0.0000,0.0625,0.4978,0.3439,0.0702,7,0
60002,142,268,241,303,255,12.855,-3.580,2.252,0.0000,0.0625,0.4978,0.3351,0.0702,7,0
60053,142,268,241,303,255,10.374,0.145,0.649,0.0000,0.0625,0.4978,0.3351,0.0702,7,0
60103,142,269,241,304,259,20.328,-4.969,-0.466,0.0000,0.0707,0.4978,0.3439,0.0904,7,0
60150,142,268,241,304,263,17.901,-2.053,-4.321,0.0000,0.0625,0.4978,0.3439,0.1105,7,0
60203,142,268,241,304,265,16.481,-8.359,-1.214,0.0000,0.0625,0.4978,0.3439,0.1205,7,0
60250,143,269,240,304,266,17.763,-1.626,-3.267,0.0000,0.0707,0.4864,0.3439,0.1256,7,0
60303,143,270,240,304,265,5.290,-3.389,-2.366,0.0000,0.0789,0.4864,0.3439,0.1205,7,0
60350,144,270,240,303,265,8.038,-1.473,-3.611,0.0000,0.0789,0.4864,0.3351,0.1205,7,0
60404,144,270,240,304,266,7.229,1.947,-2.000,0.0000,0.0789,0.4864,0.3439,0.1256,7,0
60451,144,269,240,304,266,6.679,0.794,-0.489,0.0000,0.0707,0.4864,0.3439,0.1256,7,0
60500,144,269,240,303,265,7.313,1.832,-3.221,0.0000,0.0707,0.4864,0.3351,0.1205,7,0
60551,144,269,240,303,264,7.710,1.611,-0.802,0.0000,0.0707,0.4864,0.3351,0.1155,7,0
60600,144,269,240,303,264,4.649,2.244,-1.947,0.0000,0.0707,0.4864,0.3351,0.1155,7,0
60653,144,269,240,303,264,6.290,-2.809,0.550,0.0000,0.0707,0.4864,0.3351,0.1155,7,0
60701,144,269,240,303,264,9.458,-1.473,-0.855,0.0000,0.0707,0.4864,0.3351,0.1155,7,0
60754,144,269,240,303,264,21.649,-8.015,-3.855,0.0000,0.0707,0.4864,0.3351,0.1155,7,0
60801,144,269,239,303,262,12.511,-6.176,1.412,0.0000,0.0707,0.4750,0.3351,0.1054,7,0
60854,144,268,239,303,262,12.695,-7.908,0.092,0.0000,0.0625,0.4750,0.3351,0.1054,7,0
60901,144,268,239,301,262,7.870,-8.145,1.603,0.0000,0.0625,0.4750,0.3176,0.1054,7,0
60950,145,268,239,301,261,8.427,-12.290,-7.534,0.0000,0.0625,0.4750,0.3176,0.1004,7,0
61002,146,268,239,301,261,-18.672,-13.771,-5.672,0.0000,0.0625,0.4750,0.3176,0.1004,7,0
61051,148,268,239,301,261,17.229,-9.962,-8.557,0.0000,0.0625,0.4750,0.3176,0.1004,7,0
61104,149,268,239,302,261,0.595,-18.687,-13.985,0.0000,0.0625,0.4750,0.3264,0.1004,7,0
61151,150,268,239,302,261,22.000,-13.053,-8.794,0.0000,0.0625,0.4750,0.3264,0.1004,7,0
61204,151,268,239,303,261,14.466,-17.321,-12.924,0.0000,0.0625,0.4750,0.3351,0.1004,7,0
61251,151,268,239,303,260,-2.084,-0.580,0.382,0.0000,0.0625,0.4750,0.3351,0.0954,7,0
61301,151,268,239,303,260,7.588,-0.405,-2.527,0.0000,0.0625,0.4750,0.3351,0.0954,7,0
61352,151,268,238,303,259,-1.214,2.565,1.809,0.0000,0.0625,0.4636,0.3351,0.0904,7,0
61401,151,269,238,303,259,5.176,2.947,-1.588,0.0000,0.0707,0.4636,0.3351,0.0904,7,0
61452,151,270,238,303,259,-2.969,5.603,-1.206,0.0000,0.0789,0.4636,0.3351,0.0904,7,0
61501,151,270,238,303,259,0.908,2.450,0.992,0.0000,0.0789,0.4636,0.3351,0.0904,7,0
61553,151,271,238,303,258,4.038,4.244,1.168,0.0000,0.0870,0.4636,0.3351,0.0853,7,0
61602,151,271,238,303,258,6.725,4.550,2.031,0.0000,0.0870,0.4636,0.3351,0.0853,7,0
61653,151,271,238,303,258,5.565,-1.229,2.076,0.0000,0.0870,0.4636,0.3351,0.0853,7,0
61702,151,271,238,304,258,12.214,-4.679,1.519,0.0000,0.0870,0.4636,0.3439,0.0853,7,0
61749,151,270,238,304,258,8.344,-10.092,0.397,0.0000,0.0789,0.4636,0.3439,0.0853,7,0
61802,152,270,238,305,259,28.282,-15.458,1.916,0.0000,0.0789,0.4636,0.3527,0.0904,7,0
61849,154,270,238,305,260,1.527,-12.107,4.145,0.0000,0.0789,0.4636,0.3527,0.0954,7,0
61903,155,269,238,304,260,0.634,-9.031,8.573,0.0000,0.0707,0.4636,0.3439,0.0954,7,0
61952,156,268,238,304,260,5.435,-5.695,9.122,0.0000,0.0625,0.4636,0.3439,0.0954,7,0
62003,156,268,238,303,260,-8.771,-7.206,11.908,0.0000,0.0625,0.4636,0.3351,0.0954,7,0
62052,156,267,238,303,260,-0.977,-7.641,13.664,0.0000,0.0543,0.4636,0.3351,0.0954,7,0
62099,156,267,238,302,260,-5.206,-3.145,4.718,0.0000,0.0543,0.4636,0.3264,0.0954,7,0
62153,156,266,238,301,258,-10.489,-0.847,5.489,0.0000,0.0461,0.4636,0.3176,0.0853,7,0
62200,156,266,237,300,257,3.573,1.977,1.641,0.0000,0.0461,0.4522,0.3088,0.0803,7,0
62253,156,265,238,300,255,-2.359,6.206,-1.489,0.0000,0.0379,0.4636,0.3088,0.0702,7,0
62300,155,265,237,300,255,2.947,10.649,0.496,0.0000,0.0379,0.4522,0.3088,0.0702,7,0
62353,155,265,238,300,254,-0.824,7.313,1.649,0.0000,0.0379,0.4636,0.3088,0.0652,7,0
62400,155,266,238,300,254,3.916,5.679,-0.290,0.0000,0.0461,0.4636,0.3088,0.0652,7,0
# Gesture ID set to 2
62454,155,266,238,300,253,7.084,-1.427,0.618,0.0000,0.0461,0.4636,0.3088,0.0602,2,0
62501,155,266,238,300,253,4.092,3.076,0.786,0.0000,0.0461,0.4636,0.3088,0.0602,2,0
62554,155,267,238,300,253,9.214,2.588,-0.603,0.0000,0.0543,0.4636,0.3088,0.0602,2,0
62601,155,266,238,300,252,11.321,-2.595,0.473,0.0000,0.0461,0.4636,0.3088,0.0551,2,0
62654,155,266,238,299,252,6.336,-3.046,-1.000,0.0000,0.0461,0.4636,0.3000,0.0551,2,0
62701,155,265,238,299,252,1.595,-2.580,3.756,0.0000,0.0379,0.4636,0.3000,0.0551,2,0
62753,155,265,238,299,252,7.550,6.573,-0.664,0.0000,0.0379,0.4636,0.3000,0.0551,2,0
62802,155,266,238,299,252,-1.977,-1.107,1.664,0.0000,0.0461,0.4636,0.3000,0.0551,2,0
62853,155,266,238,299,252,9.015,-3.359,2.595,0.0000,0.0461,0.4636,0.3000,0.0551,2,0
62902,155,266,238,300,252,4.244,-3.802,4.679,0.0000,0.0461,0.4636,0.3088,0.0551,2,0
62953,154,266,238,301,252,1.122,-2.229,3.565,0.0000,0.0461,0.4636,0.3176,0.0551,2,0
63003,154,266,238,301,252,10.985,-2.107,1.817,0.0000,0.0461,0.4636,0.3176,0.0551,2,0
63050,154,265,238,301,252,-6.618,-4.763,4.573,0.0000,0.0379,0.4636,0.3176,0.0551,2,0
63103,154,265,238,300,252,11.466,-0.115,3.573,0.0000,0.0379,0.4636,0.3088,0.0551,2,0
63150,154,265,238,300,251,-11.473,-0.511,8.725,0.0000,0.0379,0.4636,0.3088,0.0501,2,0
63203,154,265,238,300,251,6.672,2.664,1.725,0.0000,0.0379,0.4636,0.3088,0.0501,2,0
63250,154,265,238,300,251,-7.511,1.466,4.718,0.0000,0.0379,0.4636,0.3088,0.0501,2,0
63302,153,266,237,300,251,13.672,5.321,0.122,0.0000,0.0461,0.4522,0.3088,0.0501,2,0
63351,153,266,237,301,251,-3.969,6.427,4.504,0.0000,0.0461,0.4522,0.3176,0.0501,2,0
63402,153,266,238,300,251,5.473,6.092,3.603,0.0000,0.0461,0.4636,0.3088,0.0501,2,0
63451,153,266,237,300,251,-3.977,8.641,1.763,0.0000,0.0461,0.4522,0.3088,0.0501,2,0
63502,153,267,238,300,251,6.870,4.000,-1.122,0.0000,0.0543,0.4636,0.3088,0.0501,2,0
63551,152,267,238,300,250,6.298,1.885,-2.313,0.0000,0.0543,0.4636,0.3088,0.0451,2,0
63603,152,267,238,300,249,21.656,1.504,-1.847,0.0000,0.0543,0.4636,0.3088,0.0400,2,0
63652,152,266,238,300,249,6.359,1.695,-0.809,0.0000,0.0461,0.4636,0.3088,0.0400,2,0
63703,152,266,237,300,248,7.443,2.954,-1.053,0.0000,0.0461,0.4522,0.3088,0.0350,2,0
63752,152,266,237,300,248,5.069,5.282,-1.847,0.0000,0.0461,0.4522,0.3088,0.0350,2,0
63803,152,266,238,300,248,7.771,5.191,0.092,0.0000,0.0461,0.4636,0.3088,0.0350,2,0
63850,152,267,238,300,248,4.267,6.527,-1.298,0.0000,0.0543,0.4636,0.3088,0.0350,2,0
63904,152,267,238,300,248,6.519,3.260,-2.160,0.0000,0.0543,0.4636,0.3088,0.0350,2,0
63951,151,267,238,301,248,8.962,0.405,-1.221,0.0000,0.0543,0.4636,0.3176,0.0350,2,0
64004,151,266,238,301,248,7.756,0.641,-1.634,0.0000,0.0461,0.4636,0.3176,0.0350,2,0
64051,151,266,238,301,248,7.931,1.038,-0.710,0.0000,0.0461,0.4636,0.3176,0.0350,2,0
64104,151,266,238,301,248,10.115,3.237,-2.252,0.0000,0.0461,0.4636,0.3176,0.0350,2,0
64151,151,266,237,302,248,6.534,0.588,-2.977,0.0000,0.0461,0.4522,0.3264,0.0350,2,0
64201,151,266,237,302,248,8.916,2.137,1.718,0.0000,0.0461,0.4522,0.3264,0.0350,2,0
64252,151,266,237,302,248,7.672,2.954,-3.336,0.0000,0.0461,0.4522,0.3264,0.0350,2,0
64301,151,266,237,302,249,6.099,9.313,-0.550,0.0000,0.0461,0.4522,0.3264,0.0400,2,0
64352,151,266,237,302,251,2.595,5.260,0.458,0.0000,0.0461,0.4522,0.3264,0.0501,2,0
64399,151,266,237,302,252,13.122,8.053,-5.504,0.0000,0.0461,0.4522,0.3264,0.0551,2,0
64452,151,266,237,302,253,2.656,4.336,-1.786,0.0000,0.0461,0.4522,0.3264,0.0602,2,0
64500,151,266,237,302,253,18.893,7.771,-1.710,0.0000,0.0461,0.4522,0.3264,0.0602,2,0
64553,151,266,237,302,254,-3.092,8.084,-0.160,0.0000,0.0461,0.4522,0.3264,0.0652,2,0
64600,151,266,237,302,254,17.847,6.809,-2.733,0.0000,0.0461,0.4522,0.3264,0.0652,2,0
64653,151,266,237,302,253,7.321,3.954,-0.481,0.0000,0.0461,0.4522,0.3264,0.0602,2,0
64700,151,266,237,301,253,8.557,5.458,0.305,0.0000,0.0461,0.4522,0.3176,0.0602,2,0
64754,150,266,237,301,253,3.076,3.397,1.725,0.0000,0.0461,0.4522,0.3176,0.0602,2,0
64801,151,266,237,301,254,8.756,6.015,1.771,0.0000,0.0461,0.4522,0.3176,0.0652,2,0
64852,151,267,237,301,254,6.511,2.214,-0.145,0.0000,0.0543,0.4522,0.3176,0.0652,2,0
64901,150,266,237,301,254,7.366,1.832,-1.198,0.0000,0.0461,0.4522,0.3176,0.0652,2,0
64952,150,267,237,301,255,8.771,-0.992,-1.901,0.0000,0.0543,0.4522,0.3176,0.0702,2,0
65001,150,265,237,300,254,1.069,-10.267,-6.489,0.0000,0.0379,0.4522,0.3088,0.0652,2,0
65053,150,264,237,299,252,10.550,-1.908,-0.626,0.0000,0.0298,0.4522,0.3000,0.0551,2,0
65102,150,264,237,299,252,4.542,1.519,-0.221,0.0000,0.0298,0.4522,0.3000,0.0551,2,0
65153,150,264,236,299,252,0.954,11.382,-1.947,0.0000,0.0298,0.4408,0.3000,0.0551,2,0
65202,150,264,237,299,252,0.756,11.969,2.878,0.0000,0.0298,0.4522,0.3000,0.0551,2,0
65253,150,266,237,301,257,2.916,10.718,1.420,0.0000,0.0461,0.4522,0.3176,0.0803,2,0
65302,150,267,237,302,259,0.733,8.985,0.565,0.0000,0.0543,0.4522,0.3264,0.0904,2,0
65350,150,267,238,302,260,5.076,4.809,-2.008,0.0000,0.0543,0.4636,0.3264,0.0954,2,0
65403,150,267,238,302,260,17.603,12.282,-3.359,0.0000,0.0543,0.4636,0.3264,0.0954,2,0
65450,151,267,238,303,260,31.229,27.466,-3.344,0.0000,0.0543,0.4636,0.3351,0.0954,2,0
65503,151,266,238,303,263,59.267,43.244,-8.290,0.0000,0.0461,0.4636,0.3351,0.1105,2,0
65550,152,266,238,303,268,-3.191,25.214,-1.969,0.0000,0.0461,0.4636,0.3351,0.1356,2,0
65603,152,265,238,304,270,15.809,21.267,-6.901,0.0000,0.0379,0.4636,0.3439,0.1457,2,0
65651,152,267,238,304,271,1.718,14.939,-1.031,0.0000,0.0543,0.4636,0.3439,0.1507,2,0
65700,153,267,238,305,272,-1.076,1.198,-0.344,0.0000,0.0543,0.4636,0.3527,0.1558,2,0
65753,253,331,312,359,335,-4.863,1.550,-0.252,0.4879,0.5781,1.0000,0.8269,0.4728,2,1
65800,318,374,360,393,376,8.336,0.420,-1.924,0.9453,0.9301,1.0000,1.0000,0.6791,2,1
65853,323,378,365,396,380,-1.496,-0.321,-2.221,0.9805,0.9628,1.0000,1.0000,0.6992,2,1
65900,324,378,365,396,380,1.008,2.183,-1.702,0.9875,0.9628,1.0000,1.0000,0.6992,2,1
65954,325,379,365,396,380,-0.298,4.191,-2.573,0.9945,0.9710,1.0000,1.0000,0.6992,2,1
66003,325,379,365,396,380,7.870,1.855,-3.145,0.9945,0.9710,1.0000,1.0000,0.6992,2,1
66050,324,378,365,396,380,20.053,-5.641,-1.771,0.9875,0.9628,1.0000,1.0000,0.6992,2,1
66103,325,377,365,396,380,15.237,-14.298,-1.344,0.9945,0.9546,1.0000,1.0000,0.6992,2,1
66150,326,376,365,395,383,41.305,-65.351,-3.351,1.0000,0.9464,1.0000,1.0000,0.7143,2,1
66204,330,377,367,396,384,11.718,-101.962,6.092,1.0000,0.9546,1.0000,1.0000,0.7194,2,1
66253,332,377,367,397,381,-65.115,-146.893,29.939,1.0000,0.9546,1.0000,1.0000,0.7043,2,1
66300,334,378,367,397,379,-3.023,-121.107,23.282,1.0000,0.9628,1.0000,1.0000,0.6942,2,1
66353,336,379,367,400,378,-25.847,-109.595,20.366,1.0000,0.9710,1.0000,1.0000,0.6892,2,1
66400,339,385,367,404,380,1.122,-108.931,14.733,1.0000,1.0000,1.0000,1.0000,0.6992,2,1
66453,343,391,370,409,386,-11.374,-96.321,17.595,1.0000,1.0000,1.0000,1.0000,0.7294,2,1
66503,348,398,379,418,399,-8.008,-66.031,12.031,1.0000,1.0000,1.0000,1.0000,0.7948,2,1
66550,354,403,388,428,411,-0.931,-83.282,15.176,1.0000,1.0000,1.0000,1.0000,0.8552,2,1
66603,363,410,397,439,427,-9.389,-99.183,11.183,1.0000,1.0000,1.0000,1.0000,0.9357,2,1
66650,370,419,402,450,445,14.473,-29.366,12.405,1.0000,1.0000,1.0000,1.0000,1.0000,2,1
66703,374,425,402,454,461,14.832,-22.649,9.496,1.0000,1.0000,1.0000,1.0000,1.0000,2,1
66752,374,427,401,453,469,11.191,-8.008,5.221,1.0000,1.0000,1.0000,1.0000,1.0000,2,1
66799,374,428,401,455,470,24.725,17.550,1.221,1.0000,1.0000,1.0000,1.0000,1.0000,2,1
66853,373,428,401,455,471,16.046,10.542,2.084,1.0000,1.0000,1.0000,1.0000,1.0000,2,1
66902,372,430,400,454,472,16.832,17.672,3.809,1.0000,1.0000,1.0000,1.0000,1.0000,2,1
66953,371,430,400,453,472,8.389,10.733,4.718,1.0000,1.0000,1.0000,1.0000,1.0000,2,1
67002,371,429,400,452,471,6.641,4.885,4.427,1.0000,1.0000,1.0000,1.0000,1.0000,2,1
67049,370,430,400,452,470,15.847,5.939,-6.611,1.0000,1.0000,1.0000,1.0000,1.0000,2,1
67103,370,430,400,451,470,15.534,3.351,2.924,1.0000,1.0000,1.0000,1.0000,1.0000,2,1
67152,370,430,399,451,470,11.282,0.969,2.137,1.0000,1.0000,1.0000,1.0000,1.0000,2,1
67203,371,431,399,450,470,14.550,3.580,-8.198,1.0000,1.0000,1.0000,1.0000,1.0000,2,1
67252,371,431,399,449,469,10.382,0.450,-5.328,1.0000,1.0000,1.0000,1.0000,1.0000,2,1
67301,371,431,399,449,469,9.260,-1.924,-1.427,1.0000,1.0000,1.0000,1.0000,1.0000,2,1
67352,373,432,399,449,469,18.298,4.748,-4.313,1.0000,1.0000,1.0000,1.0000,1.0000,2,1
67402,373,432,398,448,468,12.748,6.023,-6.885,1.0000,1.0000,1.0000,1.0000,1.0000,2,1
67453,373,432,398,448,469,20.969,5.458,-9.130,1.0000,1.0000,1.0000,1.0000,1.0000,2,1
67502,372,432,398,448,469,7.405,5.504,-3.038,1.0000,1.0000,1.0000,1.0000,1.0000,2,1
67551,372,432,398,448,470,6.656,4.145,-1.145,1.0000,1.0000,1.0000,1.0000,1.0000,2,1
67602,372,432,398,448,470,10.824,1.160,-2.611,1.0000,1.0000,1.0000,1.0000,1.0000,2,1
67651,372,432,398,447,469,5.206,-1.305,1.603,1.0000,1.0000,1.0000,1.0000,1.0000,2,1
67703,373,432,398,448,470,17.031,2.450,-5.237,1.0000,1.0000,1.0000,1.0000,1.0000,2,1
67752,372,432,397,447,470,12.725,0.145,-4.427,1.0000,1.0000,1.0000,1.0000,1.0000,2,1
67801,372,431,397,448,470,3.992,3.115,-1.069,1.0000,1.0000,1.0000,1.0000,1.0000,2,1
67852,372,431,397,448,470,10.435,4.740,-3.840,1.0000,1.0000,1.0000,1.0000,1.0000,2,1
67901,371,431,397,447,470,5.427,3.863,-1.603,1.0000,1.0000,1.0000,1.0000,1.0000,2,1
67953,370,431,397,447,470,4.443,9.366,-5.038,1.0000,1.0000,1.0000,1.0000,1.0000,2,1
68002,253,379,310,414,460,15.611,7.557,-8.229,0.4879,0.9710,1.0000,1.0000,1.0000,2,0
68051,239,372,300,411,459,6.038,7.840,-5.985,0.3894,0.9137,1.0000,1.0000,1.0000,2,0
68102,237,371,299,411,457,13.954,13.847,-5.924,0.3754,0.9055,1.0000,1.0000,1.0000,2,0
68151,236,369,299,411,455,7.626,8.771,-2.771,0.3683,0.8891,1.0000,1.0000,1.0000,2,0
68204,233,367,300,412,454,21.641,21.977,-7.405,0.3472,0.8728,1.0000,1.0000,1.0000,2,0
68252,229,361,302,415,448,-34.275,79.099,-1.786,0.3191,0.8237,1.0000,1.0000,1.0000,2,0
68301,215,353,303,410,434,-25.832,62.183,-1.084,0.2206,0.7582,1.0000,1.0000,0.9710,2,0
68352,195,331,294,392,404,-42.221,67.855,1.237,0.0798,0.5781,1.0000,1.0000,0.8200,2,0
68401,180,306,281,366,360,-2.252,63.992,0.878,0.0000,0.3735,0.9539,0.8883,0.5986,2,0
68452,173,282,263,343,317,-3.779,53.420,7.962,0.0000,0.1771,0.7487,0.6864,0.3822,2,0
68501,168,266,246,324,280,-3.557,41.366,-3.427,0.0000,0.0461,0.5548,0.5195,0.1960,2,0
68551,164,257,235,309,258,3.176,45.374,1.412,0.0000,0.0000,0.4294,0.3878,0.0853,2,0
68602,162,246,225,297,246,-1.534,33.634,-0.046,0.0000,0.0000,0.3154,0.2825,0.0249,2,0
68653,160,236,217,288,235,-4.527,88.740,1.550,0.0000,0.0000,0.2242,0.2034,0.0000,2,0
68700,160,221,211,277,221,-14.076,66.855,17.031,0.0000,0.0000,0.1558,0.1069,0.0000,2,0
68753,158,211,207,270,211,3.840,87.824,15.763,0.0000,0.0000,0.1101,0.0454,0.0000,2,0
68800,156,206,204,265,205,4.115,58.855,9.817,0.0000,0.0000,0.0759,0.0015,0.0000,2,0
68852,154,207,202,262,203,11.817,41.939,5.084,0.0000,0.0000,0.0531,0.0000,0.0000,2,0
68903,152,215,201,263,203,2.794,12.847,5.573,0.0000,0.0000,0.0417,0.0000,0.0000,2,0
68950,153,221,201,263,204,8.260,19.840,-0.985,0.0000,0.0000,0.0417,0.0000,0.0000,2,0
69001,152,229,203,265,207,19.519,-10.168,5.611,0.0000,0.0000,0.0645,0.0015,0.0000,2,0
69050,152,233,203,267,211,7.718,-9.969,-4.794,0.0000,0.0000,0.0645,0.0191,0.0000,2,0
69101,152,237,203,268,214,17.489,-10.481,-4.252,0.0000,0.0000,0.0645,0.0278,0.0000,2,0
69153,153,245,205,271,217,17.061,-20.496,-8.336,0.0000,0.0000,0.0873,0.0542,0.0000,2,0
69202,153,248,205,272,217,-9.840,-18.779,-7.527,0.0000,0.0000,0.0873,0.0630,0.0000,2,0
69253,152,249,204,271,215,-12.641,-1.481,-7.817,0.0000,0.0000,0.0759,0.0542,0.0000,2,0
69300,152,253,204,273,215,-9.534,-6.580,0.534,0.0000,0.0000,0.0759,0.0717,0.0000,2,0
69351,152,252,205,274,215,5.389,7.076,0.427,0.0000,0.0000,0.0873,0.0805,0.0000,2,0
69405,152,255,204,275,216,9.397,-10.924,3.458,0.0000,0.0000,0.0759,0.0893,0.0000,2,0
69452,152,256,204,277,219,12.176,-6.634,3.115,0.0000,0.0000,0.0759,0.1069,0.0000,2,0
69503,152,257,205,277,220,6.298,0.718,-5.786,0.0000,0.0000,0.0873,0.1069,0.0000,2,0
