# Calibrating relaxed hand - keep hand relaxed and still...
# Relaxed calibration complete. Min: 273.5, 184.5, 206.5, 197.6, 193.0
# Calibrating fist - close fist and hold still...
# Fist calibration complete. Max: 452.8, 513.6, 454.8, 375.4, 360.9
# Switching to LOG mode. Starting CSV output...
time_ms,raw0,raw1,raw2,raw3,raw4,gyroX_dps,gyroY_dps,gyroZ_dps,norm0,norm1,norm2,norm3,norm4,gestureID,Button
23,237,193,216,192,200,4.695,1.542,-0.511,0.0000,0.0259,0.0382,0.0000,0.0417,0,0
42,238,195,215,193,198,10.656,-4.756,2.473,0.0000,0.0320,0.0341,0.0000,0.0297,0,0
63,238,195,216,193,198,22.534,-2.489,1.618,0.0000,0.0320,0.0382,0.0000,0.0297,0,0
80,238,194,217,192,199,32.206,-16.374,1.557,0.0000,0.0289,0.0422,0.0000,0.0357,0,0
100,239,194,222,192,199,22.389,4.878,3.458,0.0000,0.0289,0.0623,0.0000,0.0357,0,0
121,238,194,226,192,198,18.443,-1.046,-0.679,0.0000,0.0289,0.0784,0.0000,0.0297,0,0
141,237,194,229,193,199,17.092,-14.420,1.145,0.0000,0.0289,0.0905,0.0000,0.0357,0,0
162,236,193,229,192,199,12.221,-29.084,6.870,0.0000,0.0259,0.0905,0.0000,0.0357,0,0
182,236,194,227,193,200,6.794,-41.137,9.466,0.0000,0.0289,0.0825,0.0000,0.0417,0,0
203,237,196,224,192,199,1.389,-28.489,2.985,0.0000,0.0350,0.0704,0.0000,0.0357,0,0
220,236,197,224,191,199,4.336,-24.565,1.954,0.0000,0.0380,0.0704,0.0000,0.0357,0,0
241,237,198,224,191,199,18.824,-20.344,-0.244,0.0000,0.0411,0.0704,0.0000,0.0357,0,0
261,236,199,224,191,199,26.069,-25.992,-1.847,0.0000,0.0441,0.0704,0.0000,0.0357,0,0
282,237,200,224,191,199,24.023,-27.908,0.160,0.0000,0.0472,0.0704,0.0000,0.0357,0,0
302,237,202,226,192,200,18.092,-27.221,0.664,0.0000,0.0532,0.0784,0.0000,0.0417,0,0
323,237,202,226,191,200,15.130,-24.443,0.763,0.0000,0.0532,0.0784,0.0000,0.0417,0,0
343,237,204,227,191,199,15.061,-16.366,0.573,0.0000,0.0593,0.0825,0.0000,0.0357,0,0
361,239,204,228,192,198,13.115,-15.359,0.511,0.0000,0.0593,0.0865,0.0000,0.0297,0,0
381,238,205,228,192,200,15.992,-15.672,1.550,0.0000,0.0623,0.0865,0.0000,0.0417,0,0
401,237,206,228,193,200,18.573,-16.718,1.947,0.0000,0.0654,0.0865,0.0000,0.0417,0,0
422,239,206,228,192,201,18.237,-15.130,2.153,0.0000,0.0654,0.0865,0.0000,0.0476,0,0
442,240,205,228,191,200,16.305,-14.168,2.244,0.0000,0.0623,0.0865,0.0000,0.0417,0,0
463,241,205,227,192,200,13.344,-14.534,1.893,0.0000,0.0623,0.0825,0.0000,0.0417,0,0
483,243,204,226,192,200,12.099,-16.649,1.763,0.0000,0.0593,0.0784,0.0000,0.0417,0,0
500,244,205,226,193,200,10.847,-17.137,1.382,0.0000,0.0623,0.0784,0.0000,0.0417,0,0
520,246,204,227,193,200,13.954,-13.153,1.885,0.0000,0.0593,0.0825,0.0000,0.0417,0,0
541,247,204,227,191,199,19.405,-10.695,1.336,0.0000,0.0593,0.0825,0.0000,0.0357,0,0
561,246,204,226,192,199,16.893,-7.443,0.321,0.0000,0.0593,0.0784,0.0000,0.0357,0,0
582,248,205,227,191,200,11.023,-4.412,0.115,0.0000,0.0623,0.0825,0.0000,0.0417,0,0
602,247,204,227,193,202,8.260,-3.618,0.260,0.0000,0.0593,0.0825,0.0000,0.0536,0,0
623,246,205,227,192,200,12.603,-5.763,1.427,0.0000,0.0623,0.0825,0.0000,0.0417,0,0
640,247,205,228,192,199,17.252,-7.458,3.160,0.0000,0.0623,0.0865,0.0000,0.0357,0,0
661,245,206,227,192,200,15.588,-5.145,4.450,0.0000,0.0654,0.0825,0.0000,0.0417,0,0
681,245,207,227,191,199,15.527,-1.824,4.313,0.0000,0.0684,0.0825,0.0000,0.0357,0,0
701,244,209,229,190,201,18.496,-4.107,5.092,0.0000,0.0745,0.0905,0.0000,0.0476,0,0
722,246,209,228,191,200,20.198,-5.000,6.511,0.0000,0.0745,0.0865,0.0000,0.0417,0,0
742,247,209,229,192,201,18.336,-2.076,6.931,0.0000,0.0745,0.0905,0.0000,0.0476,0,0
763,245,211,229,191,200,17.313,-0.405,6.740,0.0000,0.0806,0.0905,0.0000,0.0417,0,0
780,245,211,231,191,200,18.878,-1.008,6.336,0.0000,0.0806,0.0986,0.0000,0.0417,0,0
801,243,211,232,191,200,19.366,-1.145,5.267,0.0000,0.0806,0.1026,0.0000,0.0417,0,0
821,244,214,233,191,201,16.450,-0.176,4.405,0.0000,0.0897,0.1066,0.0000,0.0476,0,0
842,245,216,234,191,200,14.260,-3.809,3.595,0.0000,0.0958,0.1107,0.0000,0.0417,0,0
862,246,219,235,191,201,16.908,-7.542,1.832,0.0000,0.1049,0.1147,0.0000,0.0476,0,0
883,246,222,239,191,201,20.023,-8.733,-0.069,0.0000,0.1140,0.1308,0.0000,0.0476,0,0
903,246,225,241,191,202,15.260,-1.382,0.435,0.0000,0.1231,0.1389,0.0000,0.0536,0,0
921,244,229,241,191,202,12.489,3.099,1.061,0.0000,0.1353,0.1389,0.0000,0.0536,0,0
941,245,230,242,191,202,11.824,3.527,1.107,0.0000,0.1383,0.1429,0.0000,0.0536,0,0
962,246,234,243,192,202,12.756,3.595,1.214,0.0000,0.1504,0.1469,0.0000,0.0536,0,0
981,245,235,242,191,200,12.359,5.611,1.687,0.0000,0.1535,0.1429,0.0000,0.0417,0,0
1002,247,236,243,192,201,9.214,6.779,1.901,0.0000,0.1565,0.1469,0.0000,0.0476,0,0
1022,247,237,243,190,200,6.832,5.931,1.580,0.0000,0.1596,0.1469,0.0000,0.0417,0,0
1042,246,238,245,192,201,6.229,6.405,1.023,0.0000,0.1626,0.1550,0.0000,0.0476,0,0
1060,245,238,244,191,199,6.450,8.382,0.023,0.0000,0.1626,0.1509,0.0000,0.0357,0,0
1080,246,239,245,191,202,5.847,10.824,-1.206,0.0000,0.1656,0.1550,0.0000,0.0536,0,0
1101,245,240,246,192,202,1.710,13.962,-1.802,0.0000,0.1687,0.1590,0.0000,0.0536,0,0
1121,244,239,245,191,203,-2.924,17.931,-2.405,0.0000,0.1656,0.1550,0.0000,0.0595,0,0
1142,244,238,245,192,201,-3.244,21.458,-2.397,0.0000,0.1626,0.1550,0.0000,0.0476,0,0
1162,241,239,246,192,199,-2.382,23.031,-3.267,0.0000,0.1656,0.1590,0.0000,0.0357,0,0
1183,241,236,245,191,200,0.809,24.061,-4.718,0.0000,0.1565,0.1550,0.0000,0.0417,0,0
1200,243,233,245,192,200,-0.702,24.878,-4.191,0.0000,0.1474,0.1550,0.0000,0.0417,0,0
1221,243,231,244,192,202,-12.626,27.237,-4.214,0.0000,0.1413,0.1509,0.0000,0.0536,0,0
1241,239,230,243,191,200,-22.847,30.748,-1.382,0.0000,0.1383,0.1469,0.0000,0.0417,0,0
1262,240,228,243,193,200,-18.473,22.733,1.519,0.0000,0.1322,0.1469,0.0000,0.0417,0,0
1282,239,227,243,192,200,-9.504,21.450,4.389,0.0000,0.1292,0.1469,0.0000,0.0417,0,0
1303,238,226,243,192,201,2.695,26.344,7.489,0.0000,0.1261,0.1469,0.0000,0.0476,0,0
1323,238,225,242,191,200,4.000,30.824,5.458,0.0000,0.1231,0.1429,0.0000,0.0417,0,0
1340,236,224,240,192,201,-1.718,32.511,2.702,0.0000,0.1201,0.1348,0.0000,0.0476,0,0
1361,235,222,239,191,199,-10.809,32.626,1.473,0.0000,0.1140,0.1308,0.0000,0.0357,0,0
1381,235,222,238,191,199,-17.985,28.618,3.229,0.0000,0.1140,0.1268,0.0000,0.0357,0,0
1402,236,219,237,191,200,-13.076,25.252,3.229,0.0000,0.1049,0.1227,0.0000,0.0417,0,0
1422,235,218,236,191,200,-6.153,26.481,-0.481,0.0000,0.1018,0.1187,0.0000,0.0417,0,0
1443,235,218,235,190,200,-5.450,30.924,-4.359,0.0000,0.1018,0.1147,0.0000,0.0417,0,0
1460,234,217,236,191,199,-9.611,32.374,-4.626,0.0000,0.0988,0.1187,0.0000,0.0357,0,0
1481,235,217,236,191,199,-13.863,31.344,-5.130,0.0000,0.0988,0.1187,0.0000,0.0357,0,0
1501,233,216,235,190,199,-17.328,27.229,-4.198,0.0000,0.0958,0.1147,0.0000,0.0357,0,0
1522,233,216,234,190,200,-15.267,22.511,-0.221,0.0000,0.0958,0.1107,0.0000,0.0417,0,0
1542,233,214,234,191,199,-5.847,20.718,5.511,0.0000,0.0897,0.1107,0.0000,0.0357,0,0
1563,232,213,233,190,199,6.954,16.023,5.595,0.0000,0.0866,0.1066,0.0000,0.0357,0,0
1583,232,212,233,190,199,16.023,14.168,4.198,0.0000,0.0836,0.1066,0.0000,0.0357,0,0
1601,233,212,233,191,199,17.160,15.947,2.618,0.0000,0.0836,0.1066,0.0000,0.0357,0,0
1621,232,212,232,191,198,7.496,12.366,-0.031,0.0000,0.0836,0.1026,0.0000,0.0297,0,0
1642,234,209,231,191,199,-0.573,6.893,-1.160,0.0000,0.0745,0.0986,0.0000,0.0357,0,0
1662,233,209,230,191,198,0.992,3.000,-2.122,0.0000,0.0745,0.0946,0.0000,0.0297,0,0
1682,231,207,230,191,199,5.916,-1.817,-1.924,0.0000,0.0684,0.0946,0.0000,0.0357,0,0
1703,229,207,230,190,199,13.473,-5.527,-0.954,0.0000,0.0684,0.0946,0.0000,0.0357,0,0
1723,230,208,228,190,198,17.534,-6.420,-0.924,0.0000,0.0715,0.0865,0.0000,0.0297,0,0
1740,230,207,227,190,199,15.382,-4.855,-1.237,0.0000,0.0684,0.0825,0.0000,0.0357,0,0
1760,230,207,228,190,198,10.504,-3.977,-1.962,0.0000,0.0684,0.0865,0.0000,0.0297,0,0
1781,231,207,227,191,199,9.015,-3.573,-2.397,0.0000,0.0684,0.0825,0.0000,0.0357,0,0
1801,231,206,228,191,199,9.473,-2.282,-2.695,0.0000,0.0654,0.0865,0.0000,0.0357,0,0
1822,232,205,228,190,199,8.901,-0.359,-0.672,0.0000,0.0623,0.0865,0.0000,0.0357,0,0
1842,231,206,227,190,199,6.870,1.710,1.641,0.0000,0.0654,0.0825,0.0000,0.0357,0,0
1863,231,206,227,190,199,6.092,2.397,2.122,0.0000,0.0654,0.0825,0.0000,0.0357,0,0
1880,229,205,226,189,199,7.206,3.046,1.198,0.0000,0.0623,0.0784,0.0000,0.0357,0,0
1901,230,205,225,190,200,6.565,2.885,-1.076,0.0000,0.0623,0.0744,0.0000,0.0417,0,0
1921,230,206,226,189,198,5.183,2.427,-1.282,0.0000,0.0654,0.0784,0.0000,0.0297,0,0
1942,230,205,226,190,199,6.809,1.595,-0.015,0.0000,0.0623,0.0784,0.0000,0.0357,0,0
1962,231,205,225,190,199,9.282,1.656,0.137,0.0000,0.0623,0.0744,0.0000,0.0357,0,0
1983,232,205,225,189,199,7.977,1.664,-0.282,0.0000,0.0623,0.0744,0.0000,0.0357,0,0
2003,231,204,225,189,199,5.069,1.244,-1.618,0.0000,0.0593,0.0744,0.0000,0.0357,0,0
2020,229,204,225,190,199,6.336,0.053,-2.191,0.0000,0.0593,0.0744,0.0000,0.0357,0,0
2041,231,204,223,189,199,10.481,-0.649,-1.496,0.0000,0.0593,0.0664,0.0000,0.0357,0,0
2061,230,204,223,189,199,11.901,-0.672,-1.282,0.0000,0.0593,0.0664,0.0000,0.0357,0,0
2082,229,205,224,189,200,8.458,1.504,-0.603,0.0000,0.0623,0.0704,0.0000,0.0417,0,0
2102,230,205,223,190,200,5.687,2.168,0.015,0.0000,0.0623,0.0664,0.0000,0.0417,0,0
2123,230,204,223,189,198,5.565,0.863,-0.595,0.0000,0.0593,0.0664,0.0000,0.0297,0,0
2143,230,203,223,189,199,7.321,-0.534,-1.969,0.0000,0.0563,0.0664,0.0000,0.0357,0,0
2161,229,204,223,189,199,8.290,0.130,-2.420,0.0000,0.0593,0.0664,0.0000,0.0357,0,0
2181,230,204,222,190,198,8.885,1.420,-1.878,0.0000,0.0593,0.0623,0.0000,0.0297,0,0
2201,229,205,223,190,199,6.802,0.656,-1.069,0.0000,0.0623,0.0664,0.0000,0.0357,0,0
2221,228,204,223,190,199,6.389,-0.260,-2.076,0.0000,0.0593,0.0664,0.0000,0.0357,0,0
2242,229,203,222,189,199,8.611,-1.397,-3.435,0.0000,0.0563,0.0623,0.0000,0.0357,0,0
2262,228,204,221,189,199,10.168,-0.038,-3.229,0.0000,0.0593,0.0583,0.0000,0.0357,0,0
2283,228,205,221,190,198,9.649,0.229,-2.450,0.0000,0.0623,0.0583,0.0000,0.0297,0,0
2300,228,204,222,189,198,8.336,-0.046,-2.466,0.0000,0.0593,0.0623,0.0000,0.0297,0,0
2320,230,205,222,190,199,8.252,-1.718,-2.702,0.0000,0.0623,0.0623,0.0000,0.0357,0,0
2341,229,203,221,190,199,8.336,-0.603,-2.947,0.0000,0.0563,0.0583,0.0000,0.0357,0,0
2361,229,203,221,189,198,7.695,1.481,-2.450,0.0000,0.0563,0.0583,0.0000,0.0297,0,0
2382,230,203,222,190,199,6.855,2.679,-1.328,0.0000,0.0563,0.0623,0.0000,0.0357,0,0
2402,229,204,222,189,199,5.313,2.015,-0.718,0.0000,0.0593,0.0623,0.0000,0.0357,0,0
2423,229,204,221,189,200,3.702,1.618,-1.183,0.0000,0.0593,0.0583,0.0000,0.0417,0,0
2440,228,203,221,188,199,3.908,1.229,-1.275,0.0000,0.0563,0.0583,0.0000,0.0357,0,0
2461,229,204,221,189,200,5.863,1.893,-0.802,0.0000,0.0593,0.0583,0.0000,0.0417,0,0
2481,228,204,220,189,199,7.634,1.763,-1.008,0.0000,0.0593,0.0543,0.0000,0.0357,0,0
2502,229,203,220,189,198,6.863,1.664,-1.702,0.0000,0.0563,0.0543,0.0000,0.0297,0,0
2522,228,204,221,188,199,6.053,1.069,-2.076,0.0000,0.0593,0.0583,0.0000,0.0357,0,0
2543,228,204,221,189,199,6.405,0.893,-1.649,0.0000,0.0593,0.0583,0.0000,0.0357,0,0
2563,229,204,221,189,198,7.695,1.252,-1.344,0.0000,0.0593,0.0583,0.0000,0.0297,0,0
2581,228,203,220,189,199,7.550,1.672,-0.916,0.0000,0.0563,0.0543,0.0000,0.0357,0,0
2601,228,203,221,189,200,6.481,1.786,-0.725,0.0000,0.0563,0.0583,0.0000,0.0417,0,0
2621,228,204,220,189,199,6.076,1.947,-0.489,0.0000,0.0593,0.0543,0.0000,0.0357,0,0
2642,229,204,221,189,199,6.336,2.076,-0.496,0.0000,0.0593,0.0583,0.0000,0.0357,0,0
2662,227,203,220,189,200,7.298,1.336,-0.840,0.0000,0.0563,0.0543,0.0000,0.0417,0,0
2682,228,203,221,189,199,7.916,1.046,-1.168,0.0000,0.0563,0.0583,0.0000,0.0357,0,0
2702,228,203,221,189,199,7.305,1.748,-0.863,0.0000,0.0563,0.0583,0.0000,0.0357,0,0
2720,227,204,221,188,198,7.573,1.924,-1.092,0.0000,0.0593,0.0583,0.0000,0.0297,0,0
2740,228,204,221,188,199,8.511,1.046,-0.954,0.0000,0.0593,0.0583,0.0000,0.0357,0,0
2761,229,203,221,189,199,9.435,0.954,-1.000,0.0000,0.0563,0.0583,0.0000,0.0357,0,0
2781,227,204,221,189,198,8.618,1.076,-1.145,0.0000,0.0593,0.0583,0.0000,0.0297,0,0
2802,228,203,220,188,198,7.229,2.084,-0.710,0.0000,0.0563,0.0543,0.0000,0.0297,0,0
2822,228,204,221,189,199,7.214,2.527,-0.756,0.0000,0.0593,0.0583,0.0000,0.0357,0,0
2843,228,203,221,189,199,8.214,2.374,-0.382,0.0000,0.0563,0.0583,0.0000,0.0357,0,0
2860,228,204,221,189,199,9.878,1.481,-0.214,0.0000,0.0593,0.0583,0.0000,0.0357,0,0
2881,229,203,222,188,198,10.527,1.473,-0.397,0.0000,0.0563,0.0623,0.0000,0.0297,0,0
2901,228,204,221,187,198,8.229,1.412,-1.122,0.0000,0.0593,0.0583,0.0000,0.0297,0,0
2922,227,204,222,189,200,6.542,2.305,-1.046,0.0000,0.0593,0.0623,0.0000,0.0417,0,0
2942,227,204,221,190,200,9.427,2.198,-0.481,0.0000,0.0593,0.0583,0.0000,0.0417,0,0
2962,228,204,221,189,198,11.313,0.763,-0.282,0.0000,0.0593,0.0583,0.0000,0.0297,0,0
2983,227,204,221,189,198,9.817,0.366,-0.939,0.0000,0.0593,0.0583,0.0000,0.0297,0,0
3000,226,204,221,189,198,8.198,0.099,-1.023,0.0000,0.0593,0.0583,0.0000,0.0297,0,0
3021,226,203,221,189,198,8.840,0.427,-0.908,0.0000,0.0563,0.0583,0.0000,0.0297,0,0
3041,228,203,221,189,198,10.733,0.290,-0.863,0.0000,0.0563,0.0583,0.0000,0.0297,0,0
3062,228,203,222,188,199,8.351,1.130,-0.504,0.0000,0.0563,0.0623,0.0000,0.0357,0,0
3081,228,203,222,189,199,5.847,1.885,-0.015,0.0000,0.0563,0.0623,0.0000,0.0357,0,0
3102,227,204,222,188,199,6.511,1.351,0.489,0.0000,0.0593,0.0623,0.0000,0.0357,0,0
3122,227,204,221,189,200,8.641,0.740,-0.252,0.0000,0.0593,0.0583,0.0000,0.0417,0,0
3143,229,204,222,189,200,9.168,0.687,-0.450,0.0000,0.0593,0.0623,0.0000,0.0417,0,0
3160,229,203,222,188,199,7.855,0.969,-0.344,0.0000,0.0563,0.0623,0.0000,0.0357,0,0
3181,227,203,222,189,200,6.809,1.229,0.397,0.0000,0.0563,0.0623,0.0000,0.0417,0,0
3201,227,203,221,188,198,7.160,0.885,0.366,0.0000,0.0563,0.0583,0.0000,0.0297,0,0
3222,228,203,221,188,198,9.053,1.031,0.397,0.0000,0.0563,0.0583,0.0000,0.0297,0,0
3242,228,203,220,189,200,9.435,1.534,-0.038,0.0000,0.0563,0.0543,0.0000,0.0417,0,0
3263,228,203,220,189,199,7.962,1.244,-0.588,0.0000,0.0563,0.0543,0.0000,0.0357,0,0
3283,227,204,221,189,199,7.031,0.725,-0.534,0.0000,0.0593,0.0583,0.0000,0.0357,0,0
3300,226,203,221,188,198,8.115,0.679,-0.038,0.0000,0.0563,0.0583,0.0000,0.0297,0,0
3321,228,203,221,188,198,8.802,1.359,0.061,0.0000,0.0563,0.0583,0.0000,0.0297,0,0
3341,227,203,222,187,199,7.076,1.832,0.450,0.0000,0.0563,0.0623,0.0000,0.0357,0,0
3362,226,203,222,188,199,6.313,1.672,0.542,0.0000,0.0563,0.0623,0.0000,0.0357,0,0
3382,226,204,222,188,199,7.191,0.557,0.481,0.0000,0.0593,0.0623,0.0000,0.0357,0,0
3403,227,202,223,188,199,8.458,0.740,0.153,0.0000,0.0532,0.0664,0.0000,0.0357,0,0
3422,227,202,222,189,199,7.924,0.641,-0.626,0.0000,0.0532,0.0623,0.0000,0.0357,0,0
3440,227,202,222,188,197,7.176,0.305,-0.985,0.0000,0.0532,0.0623,0.0000,0.0238,0,0
3460,228,203,222,188,199,7.107,0.244,-1.130,0.0000,0.0563,0.0623,0.0000,0.0357,0,0
3481,227,203,223,188,198,9.000,0.015,-0.679,0.0000,0.0563,0.0664,0.0000,0.0297,0,0
3501,226,202,225,187,199,9.534,0.702,-0.718,0.0000,0.0532,0.0744,0.0000,0.0357,0,0
3521,227,203,225,188,199,7.267,1.466,-1.252,0.0000,0.0563,0.0744,0.0000,0.0357,0,0
3541,227,203,226,188,200,5.382,1.305,-1.000,0.0000,0.0563,0.0784,0.0000,0.0417,0,0
3562,227,203,227,188,199,7.847,1.107,-0.603,0.0000,0.0563,0.0825,0.0000,0.0357,0,0
3582,228,202,228,188,199,9.870,0.779,-0.786,0.0000,0.0532,0.0865,0.0000,0.0357,0,0
3602,227,203,228,188,199,8.924,1.115,-0.733,0.0000,0.0563,0.0865,0.0000,0.0357,0,0
3623,228,202,228,188,200,7.298,1.168,-1.015,0.0000,0.0532,0.0865,0.0000,0.0417,0,0
3640,226,203,229,188,200,7.962,0.412,-0.870,0.0000,0.0563,0.0905,0.0000,0.0417,0,0
3661,227,203,228,188,199,9.489,0.466,-0.702,0.0000,0.0563,0.0865,0.0000,0.0357,0,0
3681,226,202,228,188,199,8.893,1.710,-0.771,0.0000,0.0532,0.0865,0.0000,0.0357,0,0
3702,227,202,227,188,199,5.542,1.824,-0.580,0.0000,0.0532,0.0825,0.0000,0.0357,0,0
3722,228,203,228,188,200,6.313,1.641,-0.282,0.0000,0.0563,0.0865,0.0000,0.0417,0,0
3743,228,203,228,188,199,9.427,0.756,-0.878,0.0000,0.0563,0.0865,0.0000,0.0357,0,0
3763,228,203,229,188,199,9.076,0.527,-1.076,0.0000,0.0563,0.0905,0.0000,0.0357,0,0
3781,228,202,229,188,200,7.076,1.183,-1.450,0.0000,0.0532,0.0905,0.0000,0.0417,0,0
3801,228,203,229,189,198,6.977,1.458,-0.832,0.0000,0.0563,0.0905,0.0000,0.0297,0,0
3822,227,202,229,188,198,8.725,1.847,-0.603,0.0000,0.0532,0.0905,0.0000,0.0297,0,0
3841,228,202,229,189,198,8.832,1.908,-0.702,0.0000,0.0532,0.0905,0.0000,0.0297,0,0
3862,228,201,229,188,199,7.550,1.687,-0.618,0.0000,0.0502,0.0905,0.0000,0.0357,0,0
3882,228,202,229,188,199,7.069,1.565,-0.344,0.0000,0.0532,0.0905,0.0000,0.0357,0,0
3903,228,202,229,188,199,7.985,1.328,-0.244,0.0000,0.0532,0.0905,0.0000,0.0357,0,0
3920,228,202,228,188,198,8.221,0.992,-1.046,0.0000,0.0532,0.0865,0.0000,0.0297,0,0
3940,227,202,228,188,198,7.328,1.046,-1.252,0.0000,0.0532,0.0865,0.0000,0.0297,0,0
3961,228,203,229,188,198,6.275,1.351,-0.863,0.0000,0.0563,0.0905,0.0000,0.0297,0,0
3981,229,202,229,188,199,7.321,1.244,-0.611,0.0000,0.0532,0.0905,0.0000,0.0357,0,0
4002,228,203,229,188,199,8.466,1.489,-0.672,0.0000,0.0563,0.0905,0.0000,0.0357,0,0
4022,227,202,229,187,199,8.695,1.992,-0.260,0.0000,0.0532,0.0905,0.0000,0.0357,0,0
4043,228,203,229,188,199,7.756,1.649,-0.099,0.0000,0.0563,0.0905,0.0000,0.0357,0,0
4060,227,203,228,188,198,6.000,2.229,-0.550,0.0000,0.0563,0.0865,0.0000,0.0297,0,0
4081,227,203,228,187,199,4.679,1.679,-0.779,0.0000,0.0563,0.0865,0.0000,0.0357,0,0
4101,226,203,229,188,200,6.794,0.496,-0.893,0.0000,0.0563,0.0905,0.0000,0.0417,0,0
4122,226,203,228,188,199,9.771,1.244,-0.885,0.0000,0.0563,0.0865,0.0000,0.0357,0,0
4142,227,203,228,188,199,8.718,2.015,-0.725,0.0000,0.0563,0.0865,0.0000,0.0357,0,0
4162,228,203,228,189,199,7.252,1.282,-0.595,0.0000,0.0563,0.0865,0.0000,0.0357,0,0
4182,227,202,228,188,199,7.443,1.099,-0.443,0.0000,0.0532,0.0865,0.0000,0.0357,0,0
4203,227,202,229,187,199,8.366,1.336,-1.092,0.0000,0.0532,0.0905,0.0000,0.0357,0,0
4220,227,202,228,186,199,7.771,1.458,-0.824,0.0000,0.0532,0.0865,0.0000,0.0357,0,0
4240,228,202,228,187,199,7.115,2.511,-0.756,0.0000,0.0532,0.0865,0.0000,0.0357,0,0
4261,227,203,229,187,198,7.405,1.855,-0.931,0.0000,0.0563,0.0905,0.0000,0.0297,0,0
4281,227,201,229,187,198,8.908,1.626,-1.344,0.0000,0.0502,0.0905,0.0000,0.0297,0,0
4302,228,202,228,188,198,11.107,0.771,-1.618,0.0000,0.0532,0.0865,0.0000,0.0297,0,0
4322,227,203,227,188,199,10.168,1.382,-1.389,0.0000,0.0563,0.0825,0.0000,0.0357,0,0
4343,227,201,228,187,200,9.817,0.924,-0.740,0.0000,0.0502,0.0865,0.0000,0.0417,0,0
4360,226,202,227,187,200,9.802,-0.450,-1.534,0.0000,0.0532,0.0825,0.0000,0.0417,0,0
4381,226,202,228,187,199,9.496,0.924,-1.992,0.0000,0.0532,0.0865,0.0000,0.0357,0,0
4401,227,202,228,188,199,10.099,0.832,-1.313,0.0000,0.0532,0.0865,0.0000,0.0357,0,0
4422,227,201,228,188,199,9.573,0.832,-1.603,0.0000,0.0502,0.0865,0.0000,0.0357,0,0
4442,227,203,228,188,199,8.908,1.252,-1.626,0.0000,0.0563,0.0865,0.0000,0.0357,0,0
4463,226,202,227,187,199,9.374,0.450,-1.305,0.0000,0.0532,0.0825,0.0000,0.0357,0,0
4483,226,202,227,187,199,8.282,1.015,-1.244,0.0000,0.0532,0.0825,0.0000,0.0357,0,0
4501,227,202,228,187,199,7.954,0.718,-1.099,0.0000,0.0532,0.0865,0.0000,0.0357,0,0
4520,228,202,228,187,199,8.504,0.328,-1.450,0.0000,0.0532,0.0865,0.0000,0.0357,0,0
4540,227,202,228,187,198,7.954,0.954,-1.260,0.0000,0.0532,0.0865,0.0000,0.0297,0,0
4561,227,201,229,188,199,6.878,1.313,-0.626,0.0000,0.0502,0.0905,0.0000,0.0357,0,0
4581,228,201,230,188,200,8.313,0.557,-1.145,0.0000,0.0502,0.0946,0.0000,0.0417,0,0
4602,229,202,229,188,199,9.626,0.328,-1.366,0.0000,0.0532,0.0905,0.0000,0.0357,0,0
4622,227,202,230,188,198,9.076,0.779,-1.298,0.0000,0.0532,0.0946,0.0000,0.0297,0,0
4643,226,203,230,187,198,6.504,1.695,-0.718,0.0000,0.0563,0.0946,0.0000,0.0297,0,0
4660,227,201,228,187,198,5.962,1.557,-0.595,0.0000,0.0502,0.0865,0.0000,0.0297,0,0
4681,227,201,230,187,198,6.893,1.328,-0.336,0.0000,0.0502,0.0946,0.0000,0.0297,0,0
4701,228,202,230,188,199,6.718,1.794,-0.870,0.0000,0.0532,0.0946,0.0000,0.0357,0,0
4722,228,203,229,187,200,6.382,1.679,-0.901,0.0000,0.0563,0.0905,0.0000,0.0417,0,0
4742,228,203,229,187,200,6.412,1.412,-0.771,0.0000,0.0563,0.0905,0.0000,0.0417,0,0
4763,227,202,230,187,198,7.313,1.107,-0.954,0.0000,0.0532,0.0946,0.0000,0.0297,0,0
4783,227,202,229,188,199,7.832,1.214,-0.817,0.0000,0.0532,0.0905,0.0000,0.0357,0,0
4801,227,201,229,187,198,8.489,2.282,-0.504,0.0000,0.0502,0.0905,0.0000,0.0297,0,0
4821,228,201,229,187,199,7.412,2.046,-0.779,0.0000,0.0502,0.0905,0.0000,0.0357,0,0
4842,227,201,229,187,199,7.145,1.496,-0.985,0.0000,0.0502,0.0905,0.0000,0.0357,0,0
4861,226,202,229,188,199,7.809,1.137,-1.038,0.0000,0.0532,0.0905,0.0000,0.0357,0,0
4881,226,202,230,187,199,7.305,1.779,-0.580,0.0000,0.0532,0.0946,0.0000,0.0357,0,0
4902,226,202,229,187,199,6.595,1.305,-0.618,0.0000,0.0532,0.0905,0.0000,0.0357,0,0
4922,227,202,229,186,199,6.901,1.618,-0.221,0.0000,0.0532,0.0905,0.0000,0.0357,0,0
4940,227,201,228,187,198,8.107,2.313,-0.015,0.0000,0.0502,0.0865,0.0000,0.0297,0,0
4960,228,201,229,187,199,8.015,1.527,-0.496,0.0000,0.0502,0.0905,0.0000,0.0357,0,0
4981,228,201,228,186,199,7.840,1.053,-0.878,0.0000,0.0502,0.0865,0.0000,0.0357,0,0
5001,227,201,228,187,199,7.389,1.397,-0.710,0.0000,0.0502,0.0865,0.0000,0.0357,0,0
5022,227,201,229,187,199,6.969,1.023,-0.771,0.0000,0.0502,0.0905,0.0000,0.0357,0,0
5042,225,202,228,187,199,8.130,0.656,-1.153,0.0000,0.0532,0.0865,0.0000,0.0357,0,0
5063,226,202,228,187,198,8.763,0.557,-1.107,0.0000,0.0532,0.0865,0.0000,0.0297,0,0
5083,227,202,229,187,199,9.038,0.885,-0.695,0.0000,0.0532,0.0905,0.0000,0.0357,0,0
5101,227,202,229,187,198,8.649,0.962,-0.863,0.0000,0.0532,0.0905,0.0000,0.0297,0,0
5121,227,201,229,186,199,9.191,4.924,0.229,0.0000,0.0502,0.0905,0.0000,0.0357,0,0
5142,227,201,230,187,198,12.725,3.084,0.412,0.0000,0.0502,0.0946,0.0000,0.0297,0,0
# Gesture ID set to 1
5162,228,201,231,188,198,9.427,0.702,-0.389,0.0000,0.0502,0.0986,0.0000,0.0297,1,0
5183,227,202,232,187,198,11.214,-5.527,-0.710,0.0000,0.0532,0.1026,0.0000,0.0297,1,0
5203,227,202,231,187,199,30.702,-16.634,-1.198,0.0000,0.0532,0.0986,0.0000,0.0357,1,0
5220,228,202,230,187,198,33.847,-13.557,-1.885,0.0000,0.0532,0.0946,0.0000,0.0297,1,0
5241,228,201,228,186,198,21.145,-20.374,4.641,0.0000,0.0502,0.0865,0.0000,0.0297,1,0
5261,228,201,229,187,200,-1.840,-21.420,5.687,0.0000,0.0502,0.0905,0.0000,0.0417,1,0
5281,227,201,230,187,201,-8.389,-33.084,3.527,0.0000,0.0502,0.0946,0.0000,0.0476,1,0
5301,227,202,233,187,199,2.718,-42.641,-0.771,0.0000,0.0532,0.1066,0.0000,0.0357,1,0
5322,230,204,234,187,199,22.740,-57.130,-0.214,0.0000,0.0593,0.1107,0.0000,0.0357,1,0
5342,232,209,234,187,199,40.908,-64.244,1.206,0.0000,0.0745,0.1107,0.0000,0.0357,1,0
5363,234,218,239,187,199,50.084,-63.504,1.534,0.0000,0.1018,0.1308,0.0000,0.0357,1,0
5380,236,226,247,187,198,47.992,-62.634,0.443,0.0000,0.1261,0.1630,0.0000,0.0297,1,0
5401,240,231,253,187,199,32.511,-62.565,0.275,0.0000,0.1413,0.1872,0.0000,0.0357,1,0
5421,243,237,255,188,201,19.244,-64.145,2.275,0.0000,0.1596,0.1952,0.0000,0.0476,1,0
5442,249,246,258,187,200,14.550,-69.443,4.542,0.0000,0.1869,0.2073,0.0000,0.0417,1,0
5462,256,258,263,187,201,23.565,-73.718,3.969,0.0000,0.2234,0.2274,0.0000,0.0476,1,0
5483,260,274,270,189,201,38.244,-71.580,1.328,0.0000,0.2720,0.2556,0.0000,0.0476,1,0
5500,266,283,275,188,200,47.435,-69.427,-3.191,0.0000,0.2993,0.2758,0.0000,0.0417,1,0
5521,272,288,278,189,202,46.290,-73.725,-6.458,0.0000,0.3145,0.2879,0.0000,0.0536,1,0
5542,276,294,283,189,201,42.527,-70.763,-7.412,0.0137,0.3327,0.3080,0.0000,0.0476,1,0
5562,285,302,287,189,202,37.702,-68.580,-5.939,0.0639,0.3570,0.3241,0.0000,0.0536,1,0
5583,287,307,292,190,202,34.000,-57.305,-3.901,0.0750,0.3722,0.3442,0.0000,0.0536,1,0
5600,293,310,293,189,202,37.229,-50.191,-2.740,0.1085,0.3813,0.3483,0.0000,0.0536,1,0
5621,298,316,296,190,203,34.420,-45.198,0.084,0.1364,0.3996,0.3603,0.0000,0.0595,1,0
5642,303,323,301,190,203,40.786,-36.061,3.313,0.1643,0.4208,0.3805,0.0000,0.0595,1,0
5663,310,331,310,191,203,40.618,-29.290,5.595,0.2033,0.4451,0.4167,0.0000,0.0595,1,0
5680,312,336,318,191,203,29.496,-21.420,6.160,0.2145,0.4603,0.4489,0.0000,0.0595,1,0
5701,316,341,324,191,203,17.115,-15.450,10.122,0.2368,0.4755,0.4731,0.0000,0.0595,1,0
5721,318,349,331,192,203,21.809,-15.931,6.977,0.2479,0.4998,0.5013,0.0000,0.0595,1,0
5742,321,360,341,193,202,23.794,-27.252,4.672,0.2647,0.5333,0.5416,0.0000,0.0536,1,0
5763,325,368,350,193,203,32.824,-19.672,0.802,0.2870,0.5576,0.5778,0.0000,0.0595,1,0
5781,328,372,357,195,202,32.229,-15.687,-3.115,0.3037,0.5697,0.6060,0.0000,0.0536,1,0
5801,329,373,362,196,204,25.771,-10.924,-2.504,0.3093,0.5727,0.6261,0.0000,0.0655,1,0
5821,331,377,367,197,204,27.420,-8.702,-0.527,0.3204,0.5849,0.6463,0.0000,0.0655,1,0
5842,336,384,372,198,203,20.641,-7.191,-1.115,0.3483,0.6062,0.6664,0.0021,0.0595,1,0
5862,337,390,377,198,204,16.817,-4.244,-3.336,0.3539,0.6244,0.6865,0.0021,0.0655,1,0
5881,338,391,378,200,204,18.618,1.267,-4.023,0.3595,0.6274,0.6906,0.0133,0.0655,1,0
5901,337,387,377,200,203,20.206,3.687,-3.397,0.3539,0.6153,0.6865,0.0133,0.0595,1,0
5922,336,373,374,200,205,17.176,5.504,-0.389,0.3483,0.5727,0.6745,0.0133,0.0714,1,0
5942,337,368,371,201,204,14.481,7.321,2.443,0.3539,0.5576,0.6624,0.0190,0.0655,1,0
5963,335,366,370,201,204,15.053,3.221,0.947,0.3427,0.5515,0.6583,0.0190,0.0655,1,0
5980,334,364,369,201,204,17.847,-2.580,-0.710,0.3372,0.5454,0.6543,0.0190,0.0655,1,0
6002,332,365,370,201,204,21.427,-4.901,-2.137,0.3260,0.5484,0.6583,0.0190,0.0655,1,0
6022,330,369,372,202,205,20.557,-3.710,-4.237,0.3149,0.5606,0.6664,0.0246,0.0714,1,0
6043,331,369,371,201,205,17.573,-2.260,-5.061,0.3204,0.5606,0.6624,0.0190,0.0714,1,0
6060,329,365,370,201,205,17.298,-3.366,-4.023,0.3093,0.5484,0.6583,0.0190,0.0714,1,0
6081,331,365,370,202,204,19.298,-1.733,-3.885,0.3204,0.5484,0.6583,0.0246,0.0655,1,0
6102,329,365,371,202,205,17.542,-0.687,-3.656,0.3093,0.5484,0.6624,0.0246,0.0714,1,0
6123,329,369,371,202,205,15.519,1.046,-2.382,0.3093,0.5606,0.6624,0.0246,0.0714,1,0
6143,327,370,372,202,205,15.267,1.534,-1.634,0.2981,0.5636,0.6664,0.0246,0.0714,1,0
6160,329,369,371,201,204,15.366,-1.038,-2.137,0.3093,0.5606,0.6624,0.0190,0.0655,1,0
6181,327,366,370,201,205,15.748,0.191,-3.351,0.2981,0.5515,0.6583,0.0190,0.0714,1,0
6201,328,364,370,202,206,16.443,1.305,-3.145,0.3037,0.5454,0.6583,0.0246,0.0774,1,0
6223,327,365,370,201,204,16.885,-0.115,-2.824,0.2981,0.5484,0.6583,0.0190,0.0655,1,0
6240,328,365,369,202,204,14.214,-0.389,-2.817,0.3037,0.5484,0.6543,0.0246,0.0655,1,0
6261,330,366,369,202,205,11.611,0.305,-3.092,0.3149,0.5515,0.6543,0.0246,0.0714,1,0
6281,328,366,368,203,205,11.206,0.504,-3.504,0.3037,0.5515,0.6503,0.0302,0.0714,1,0
6302,329,369,369,203,205,12.496,0.565,-3.389,0.3093,0.5606,0.6543,0.0302,0.0714,1,0
6323,330,368,369,203,205,11.626,0.008,-2.611,0.3149,0.5576,0.6543,0.0302,0.0714,1,0
6341,329,366,369,203,206,10.061,-2.023,-1.924,0.3093,0.5515,0.6543,0.0302,0.0774,1,0
6361,328,363,367,202,205,10.298,-2.878,-2.023,0.3037,0.5424,0.6463,0.0246,0.0714,1,0
6382,328,361,364,203,205,12.443,-1.679,-2.939,0.3037,0.5363,0.6342,0.0302,0.0714,1,0
6402,329,362,365,203,207,10.046,1.420,-3.466,0.3093,0.5393,0.6382,0.0302,0.0833,1,0
6423,330,362,363,202,207,6.779,5.237,-3.626,0.3149,0.5393,0.6302,0.0246,0.0833,1,0
6441,330,361,362,202,205,5.397,5.176,-4.160,0.3149,0.5363,0.6261,0.0246,0.0714,1,0
6461,330,360,361,203,206,5.214,3.832,-5.061,0.3149,0.5333,0.6221,0.0302,0.0774,1,0
6482,331,359,360,202,206,6.649,5.588,-5.412,0.3204,0.5302,0.6181,0.0246,0.0774,1,0
6502,330,358,360,202,206,6.397,6.550,-5.099,0.3149,0.5272,0.6181,0.0246,0.0774,1,0
6520,329,357,359,202,206,4.534,4.183,-4.534,0.3093,0.5241,0.6140,0.0246,0.0774,1,0
6541,328,356,358,202,206,4.855,2.656,-4.511,0.3037,0.5211,0.6100,0.0246,0.0774,1,0
6562,329,355,356,202,207,7.695,1.603,-5.298,0.3093,0.5181,0.6020,0.0246,0.0833,1,0
6582,329,355,356,203,205,9.260,1.496,-4.901,0.3093,0.5181,0.6020,0.0302,0.0714,1,0
6603,330,355,355,203,207,6.557,1.191,-4.321,0.3149,0.5181,0.5979,0.0302,0.0833,1,0
6620,330,356,355,203,206,4.244,0.275,-4.443,0.3149,0.5211,0.5979,0.0302,0.0774,1,0
6641,328,353,355,203,205,3.656,-0.939,-4.740,0.3037,0.5120,0.5979,0.0302,0.0714,1,0
6662,328,353,353,202,205,7.855,-0.985,-4.282,0.3037,0.5120,0.5899,0.0246,0.0714,1,0
6683,329,353,352,202,205,10.565,-1.252,-4.008,0.3093,0.5120,0.5859,0.0246,0.0714,1,0
6700,330,352,352,203,205,8.565,-0.313,-3.344,0.3149,0.5089,0.5859,0.0302,0.0714,1,0
6721,328,349,350,202,207,4.710,1.015,-2.947,0.3037,0.4998,0.5778,0.0246,0.0833,1,0
6741,330,351,350,202,206,3.817,1.000,-3.191,0.3149,0.5059,0.5778,0.0246,0.0774,1,0
6762,329,350,350,202,206,5.710,2.641,-3.679,0.3093,0.5029,0.5778,0.0246,0.0774,1,0
6783,328,350,349,202,206,7.237,3.672,-3.122,0.3037,0.5029,0.5738,0.0246,0.0774,1,0
6800,329,350,348,202,207,7.237,2.206,-2.328,0.3093,0.5029,0.5697,0.0246,0.0833,1,0
6821,329,349,348,202,204,5.244,-0.267,-2.107,0.3093,0.4998,0.5697,0.0246,0.0655,1,0
6841,328,349,348,202,205,3.931,0.618,-1.359,0.3037,0.4998,0.5697,0.0246,0.0714,1,0
6862,329,351,348,202,207,2.687,0.107,-1.733,0.3093,0.5059,0.5697,0.0246,0.0833,1,0
6883,330,351,348,202,208,5.260,0.252,-2.092,0.3149,0.5059,0.5697,0.0246,0.0893,1,0
6901,328,349,346,202,206,6.168,1.580,-2.351,0.3037,0.4998,0.5617,0.0246,0.0774,1,0
6921,329,349,347,201,207,4.053,0.649,-3.756,0.3093,0.4998,0.5657,0.0190,0.0833,1,0
6942,331,350,346,201,207,1.802,-0.473,-3.710,0.3204,0.5029,0.5617,0.0190,0.0833,1,0
6962,329,348,345,202,207,2.603,0.557,-2.374,0.3093,0.4968,0.5577,0.0246,0.0833,1,0
6983,330,349,345,201,209,5.855,6.756,1.641,0.3149,0.4998,0.5577,0.0190,0.0953,1,0
7001,327,348,343,201,207,4.832,5.924,2.290,0.2981,0.4968,0.5496,0.0190,0.0833,1,0
7022,324,350,343,200,209,-1.733,-2.901,-0.420,0.2814,0.5029,0.5496,0.0133,0.0953,1,0
7042,322,352,341,201,208,-1.786,-3.344,-0.290,0.2702,0.5089,0.5416,0.0190,0.0893,1,0
7063,323,350,341,201,208,-0.641,-4.405,-0.359,0.2758,0.5029,0.5416,0.0190,0.0893,1,0
7080,323,350,339,200,208,-0.748,-8.771,-1.458,0.2758,0.5029,0.5335,0.0133,0.0893,1,0
7100,325,349,338,201,209,-2.969,-12.809,-2.015,0.2870,0.4998,0.5295,0.0190,0.0953,1,0
7122,327,349,338,200,209,-2.015,-10.634,-0.885,0.2981,0.4998,0.5295,0.0133,0.0953,1,0
7142,325,349,337,200,209,-0.084,-6.519,-0.725,0.2870,0.4998,0.5255,0.0133,0.0953,1,0
7163,325,349,336,201,210,-0.603,-6.687,-1.351,0.2870,0.4998,0.5214,0.0190,0.1012,1,0
7180,327,346,337,201,209,-0.817,-8.824,-2.214,0.2981,0.4907,0.5255,0.0190,0.0953,1,0
7201,326,345,336,200,209,-0.893,-11.924,-2.473,0.2925,0.4877,0.5214,0.0133,0.0953,1,0
7222,328,344,335,200,210,0.160,-10.992,-2.389,0.3037,0.4846,0.5174,0.0133,0.1012,1,0
7243,327,342,335,200,209,1.939,-10.504,-2.099,0.2981,0.4786,0.5174,0.0133,0.0953,1,0
7260,325,340,334,201,209,1.450,-7.962,-0.473,0.2870,0.4725,0.5134,0.0190,0.0953,1,0
7281,320,337,332,200,210,2.473,-7.557,-1.397,0.2591,0.4634,0.5053,0.0133,0.1012,1,0
7301,319,337,331,199,210,2.061,-8.252,-2.626,0.2535,0.4634,0.5013,0.0077,0.1012,1,0
7322,319,335,331,200,210,3.733,-6.771,-2.397,0.2535,0.4573,0.5013,0.0133,0.1012,1,0
7343,318,331,330,200,211,3.511,-5.427,-1.718,0.2479,0.4451,0.4973,0.0133,0.1072,1,0
7361,320,329,329,200,209,3.695,-3.115,-1.824,0.2591,0.4391,0.4932,0.0133,0.0953,1,0
7381,320,327,326,200,210,2.481,-1.267,-0.962,0.2591,0.4330,0.4812,0.0133,0.1012,1,0
7402,316,324,325,199,210,4.031,-0.672,0.534,0.2368,0.4239,0.4771,0.0077,0.1012,1,0
7422,316,323,323,199,211,7.031,-0.397,0.160,0.2368,0.4208,0.4691,0.0077,0.1072,1,0
7442,314,320,321,198,210,4.290,-0.435,-0.008,0.2256,0.4117,0.4610,0.0021,0.1012,1,0
7463,312,316,321,198,210,5.740,1.809,1.420,0.2145,0.3996,0.4610,0.0021,0.1012,1,0
7480,311,313,320,198,210,7.702,0.656,1.191,0.2089,0.3905,0.4570,0.0021,0.1012,1,0
7501,311,311,317,198,210,6.412,0.458,-0.282,0.2089,0.3844,0.4449,0.0021,0.1012,1,0
7522,310,308,316,198,212,1.786,4.466,-1.183,0.2033,0.3753,0.4409,0.0021,0.1131,1,0
7543,310,307,315,198,211,-4.260,5.626,-1.695,0.2033,0.3722,0.4369,0.0021,0.1072,1,0
7560,309,304,312,197,210,-9.031,7.786,-0.634,0.1977,0.3631,0.4248,0.0000,0.1012,1,0
7581,307,300,310,198,211,-4.969,9.267,0.870,0.1866,0.3510,0.4167,0.0021,0.1072,1,0
7601,307,297,309,198,210,1.603,9.183,0.282,0.1866,0.3419,0.4127,0.0021,0.1012,1,0
7623,305,292,306,197,211,1.557,6.382,-1.061,0.1754,0.3267,0.4006,0.0000,0.1072,1,0
7643,303,290,304,197,211,-1.656,9.214,-1.466,0.1643,0.3206,0.3926,0.0000,0.1072,1,0
7661,303,287,301,196,210,-11.107,9.550,-0.863,0.1643,0.3115,0.3805,0.0000,0.1012,1,0
7681,301,282,299,195,212,-15.511,10.870,-0.435,0.1531,0.2963,0.3724,0.0000,0.1131,1,0
7702,299,276,296,196,211,-8.160,14.214,-1.603,0.1420,0.2780,0.3603,0.0000,0.1072,1,0
7722,297,267,291,196,210,-7.611,14.817,-3.588,0.1308,0.2507,0.3402,0.0000,0.1012,1,0
7744,295,259,287,196,210,-1.023,15.412,-2.840,0.1197,0.2264,0.3241,0.0000,0.1012,1,0
7761,294,252,284,195,211,5.061,14.824,-2.809,0.1141,0.2051,0.3120,0.0000,0.1072,1,0
7781,293,242,280,194,209,3.290,10.107,-3.015,0.1085,0.1748,0.2959,0.0000,0.0953,1,0
7802,291,233,277,195,209,-1.382,8.443,-2.420,0.0973,0.1474,0.2838,0.0000,0.0953,1,0
7822,288,225,274,194,208,-5.107,8.847,-1.756,0.0806,0.1231,0.2717,0.0000,0.0893,1,0
7843,285,220,272,194,208,-1.870,11.168,-2.802,0.0639,0.1079,0.2637,0.0000,0.0893,1,0
7860,284,215,272,194,209,1.863,7.466,-3.595,0.0583,0.0927,0.2637,0.0000,0.0953,1,0
7881,285,212,272,192,207,2.786,8.008,-3.176,0.0639,0.0836,0.2637,0.0000,0.0833,1,0
7901,285,208,273,192,206,2.916,8.481,-2.664,0.0639,0.0715,0.2677,0.0000,0.0774,1,0
7923,284,207,273,191,206,2.450,6.153,-1.565,0.0583,0.0684,0.2677,0.0000,0.0774,1,1
7943,280,205,275,191,208,5.122,4.000,-1.863,0.0360,0.0623,0.2758,0.0000,0.0893,1,1
7961,280,206,276,191,207,7.160,0.481,-1.176,0.0360,0.0654,0.2798,0.0000,0.0833,1,1
7981,278,204,280,192,207,12.344,-3.901,0.160,0.0248,0.0593,0.2959,0.0000,0.0833,1,1
8002,280,204,283,191,206,15.260,-4.267,1.244,0.0360,0.0593,0.3080,0.0000,0.0774,1,1
8022,278,203,284,190,205,16.802,-10.702,1.237,0.0248,0.0563,0.3120,0.0000,0.0714,1,1
8043,277,202,288,191,206,16.122,-16.267,2.435,0.0193,0.0532,0.3281,0.0000,0.0774,1,1
8060,277,202,291,190,206,12.328,-19.908,4.595,0.0193,0.0532,0.3402,0.0000,0.0774,1,1
8080,277,203,295,190,204,14.511,-19.634,6.687,0.0193,0.0563,0.3563,0.0000,0.0655,1,1
8102,277,202,299,189,204,17.595,-23.580,8.412,0.0193,0.0532,0.3724,0.0000,0.0655,1,1
8122,277,204,297,189,204,20.328,-23.107,7.458,0.0193,0.0593,0.3644,0.0000,0.0655,1,1
8143,279,207,300,189,204,19.847,-21.939,4.344,0.0304,0.0684,0.3764,0.0000,0.0655,1,1
8160,281,209,305,190,203,18.679,-27.847,4.397,0.0416,0.0745,0.3966,0.0000,0.0595,1,1
8181,285,213,307,189,204,15.458,-27.847,3.992,0.0639,0.0866,0.4046,0.0000,0.0655,1,1
8201,287,219,303,189,204,15.305,-22.565,2.977,0.0750,0.1049,0.3885,0.0000,0.0655,1,1
8222,289,224,309,189,205,20.580,-20.939,3.496,0.0862,0.1201,0.4127,0.0000,0.0714,1,1
8242,294,231,314,188,204,28.015,-25.534,5.397,0.1141,0.1413,0.4328,0.0000,0.0655,1,1
8261,298,236,315,189,205,28.634,-27.008,4.695,0.1364,0.1565,0.4369,0.0000,0.0714,1,1
8281,303,245,312,189,205,25.603,-28.779,5.443,0.1643,0.1839,0.4248,0.0000,0.0714,1,1
8302,307,256,307,189,204,20.122,-27.420,5.702,0.1866,0.2173,0.4046,0.0000,0.0655,1,1
8322,314,266,306,189,206,23.107,-23.397,7.397,0.2256,0.2477,0.4006,0.0000,0.0774,1,1
8343,319,279,307,189,206,33.542,-29.924,11.450,0.2535,0.2872,0.4046,0.0000,0.0774,1,1
8360,324,288,311,189,208,36.504,-27.489,14.695,0.2814,0.3145,0.4207,0.0000,0.0893,1,1
8380,327,297,316,189,209,35.267,-25.061,15.214,0.2981,0.3419,0.4409,0.0000,0.0953,1,1
8402,331,309,316,189,210,34.840,-29.542,12.847,0.3204,0.3783,0.4409,0.0000,0.1012,1,1
8422,343,323,323,191,209,39.489,-26.145,16.962,0.3874,0.4208,0.4691,0.0000,0.0953,1,1
8443,356,338,329,190,209,46.328,-28.557,18.672,0.4599,0.4664,0.4932,0.0000,0.0953,1,1
8460,366,346,336,190,208,46.817,-27.115,19.725,0.5156,0.4907,0.5214,0.0000,0.0893,1,1
8481,374,361,338,191,208,65.924,-23.107,19.366,0.5602,0.5363,0.5295,0.0000,0.0893,1,1
8501,382,383,343,192,208,67.786,-14.534,18.992,0.6049,0.6031,0.5496,0.0000,0.0893,1,1
8523,398,403,348,195,209,64.626,-20.794,16.298,0.6941,0.6639,0.5697,0.0000,0.0953,1,1
8543,428,422,350,199,208,99.779,-2.794,22.382,0.8614,0.7216,0.5778,0.0077,0.0893,1,1
8561,458,433,350,204,207,120.809,19.573,23.374,1.0000,0.7550,0.5778,0.0358,0.0833,1,1
8581,484,440,351,215,207,118.145,29.023,16.878,1.0000,0.7763,0.5818,0.0977,0.0833,1,1
8602,501,445,348,225,205,88.947,33.527,17.252,1.0000,0.7915,0.5697,0.1540,0.0714,1,1
8622,514,443,352,233,204,60.206,30.626,24.718,1.0000,0.7854,0.5859,0.1990,0.0655,1,1
8641,524,440,358,237,201,54.305,35.198,22.611,1.0000,0.7763,0.6100,0.2215,0.0476,1,1
8661,529,438,354,239,200,69.847,46.855,10.122,1.0000,0.7702,0.5939,0.2328,0.0417,1,1
8682,533,434,344,240,199,66.214,35.519,7.733,1.0000,0.7581,0.5536,0.2384,0.0357,1,1
8702,540,431,341,240,199,45.153,28.489,9.443,1.0000,0.7490,0.5416,0.2384,0.0357,1,1
8722,539,430,340,239,197,28.893,21.107,11.130,1.0000,0.7459,0.5375,0.2328,0.0238,1,1
8741,538,427,340,237,196,30.214,21.183,6.756,1.0000,0.7368,0.5375,0.2215,0.0178,1,1
8761,536,427,340,234,196,43.618,20.229,3.496,1.0000,0.7368,0.5375,0.2046,0.0178,1,1
8782,541,426,338,234,194,34.489,12.573,2.481,1.0000,0.7338,0.5295,0.2046,0.0059,1,1
8802,539,425,338,230,193,26.557,13.641,3.427,1.0000,0.7307,0.5295,0.1821,0.0000,1,1
8820,545,426,337,229,193,25.702,11.756,3.351,1.0000,0.7338,0.5255,0.1765,0.0000,1,1
8840,545,424,336,226,192,30.321,8.344,-0.550,1.0000,0.7277,0.5214,0.1596,0.0000,1,1
8862,542,425,335,225,192,26.290,7.695,-3.221,1.0000,0.7307,0.5174,0.1540,0.0000,1,1
8881,541,423,337,223,192,12.710,4.473,-0.847,1.0000,0.7247,0.5255,0.1427,0.0000,1,1
8902,541,422,339,223,192,14.573,-0.168,-1.779,1.0000,0.7216,0.5335,0.1427,0.0000,1,1
8923,536,422,340,221,191,20.786,7.595,-3.412,1.0000,0.7216,0.5375,0.1315,0.0000,1,1
8941,540,419,342,221,191,23.015,10.382,-6.618,1.0000,0.7125,0.5456,0.1315,0.0000,1,1
8961,539,419,345,222,190,13.695,8.397,-6.015,1.0000,0.7125,0.5577,0.1371,0.0000,1,1
8982,538,417,345,220,192,5.885,10.656,-3.557,1.0000,0.7064,0.5577,0.1259,0.0000,1,1
9002,537,415,345,220,191,13.107,8.321,-1.634,1.0000,0.7003,0.5577,0.1259,0.0000,1,1
9023,531,416,347,218,190,11.405,7.252,-2.504,1.0000,0.7034,0.5657,0.1146,0.0000,1,1
9040,532,414,345,217,190,6.878,7.962,-3.916,1.0000,0.6973,0.5577,0.1090,0.0000,1,1
9061,532,413,343,218,190,7.740,8.809,-2.466,1.0000,0.6943,0.5496,0.1146,0.0000,1,1
9082,530,413,342,217,190,5.473,7.695,-3.779,1.0000,0.6943,0.5456,0.1090,0.0000,1,1
9102,530,413,340,217,190,-4.160,2.382,-4.901,1.0000,0.6943,0.5375,0.1090,0.0000,1,1
9123,534,413,340,217,189,1.366,2.275,-1.412,1.0000,0.6943,0.5375,0.1090,0.0000,1,1
9140,534,411,339,216,190,9.405,1.321,-1.847,1.0000,0.6882,0.5335,0.1034,0.0000,1,1
9161,531,412,337,216,188,8.260,3.863,-2.756,1.0000,0.6912,0.5255,0.1034,0.0000,1,1
9181,530,410,334,216,189,-0.076,2.458,-3.183,1.0000,0.6852,0.5134,0.1034,0.0000,1,1
9203,531,410,331,217,189,-0.198,-0.939,-1.168,1.0000,0.6852,0.5013,0.1090,0.0000,1,1
9223,533,408,329,215,189,7.443,4.893,-2.168,1.0000,0.6791,0.4932,0.0977,0.0000,1,1
9241,533,407,327,215,189,11.344,4.519,-3.298,1.0000,0.6760,0.4852,0.0977,0.0000,1,1
9261,532,409,327,215,189,10.298,2.557,-1.779,1.0000,0.6821,0.4852,0.0977,0.0000,1,1
9282,528,407,325,215,189,8.244,-0.321,-0.573,1.0000,0.6760,0.4771,0.0977,0.0000,1,1
9302,533,406,324,215,189,6.901,1.405,-0.794,1.0000,0.6730,0.4731,0.0977,0.0000,1,1
9323,534,407,323,216,189,7.397,0.985,-1.641,1.0000,0.6760,0.4691,0.1034,0.0000,1,1
9340,531,406,322,215,190,7.153,0.176,-1.191,1.0000,0.6730,0.4650,0.0977,0.0000,1,1
9361,530,406,322,214,189,4.107,-2.130,-1.634,1.0000,0.6730,0.4650,0.0921,0.0000,1,1
9382,530,408,322,214,189,4.450,-2.137,-1.023,1.0000,0.6791,0.4650,0.0921,0.0000,1,1
9402,528,410,321,213,189,3.641,-0.298,-1.885,1.0000,0.6852,0.4610,0.0865,0.0000,1,1
9423,532,412,320,213,190,3.702,1.817,-1.405,1.0000,0.6912,0.4570,0.0865,0.0000,1,1
9440,531,413,318,211,189,9.740,-1.595,-0.992,1.0000,0.6943,0.4489,0.0752,0.0000,1,1
9461,530,414,316,213,188,11.115,-0.168,-1.557,1.0000,0.6973,0.4409,0.0865,0.0000,1,1
9481,530,416,316,211,188,6.725,2.176,-0.450,1.0000,0.7034,0.4409,0.0752,0.0000,1,1
9502,531,417,317,211,188,7.092,2.634,-1.634,1.0000,0.7064,0.4449,0.0752,0.0000,1,1
9523,528,416,316,212,188,2.962,1.313,-1.458,1.0000,0.7034,0.4409,0.0809,0.0000,1,1
9541,531,417,315,212,188,1.160,-1.611,-0.435,1.0000,0.7064,0.4369,0.0809,0.0000,1,1
9561,534,417,315,211,188,2.237,-2.588,0.191,1.0000,0.7064,0.4369,0.0752,0.0000,1,1
9582,531,419,316,211,189,7.992,-0.137,-1.061,1.0000,0.7125,0.4409,0.0752,0.0000,1,1
9602,529,421,316,212,188,9.160,1.557,-1.481,1.0000,0.7186,0.4409,0.0809,0.0000,1,1
9623,529,421,316,212,188,5.000,-0.832,-1.168,1.0000,0.7186,0.4409,0.0809,0.0000,1,1
9640,529,421,316,210,189,4.519,-0.824,0.305,1.0000,0.7186,0.4409,0.0696,0.0000,1,1
9660,534,420,315,210,188,5.855,2.122,0.092,1.0000,0.7155,0.4369,0.0696,0.0000,1,1
9682,536,421,316,210,188,4.405,1.435,0.924,1.0000,0.7186,0.4409,0.0696,0.0000,1,1
9702,532,421,317,210,189,-0.443,1.679,0.679,1.0000,0.7186,0.4449,0.0696,0.0000,1,1
9723,535,423,315,209,188,3.557,0.954,0.580,1.0000,0.7247,0.4369,0.0640,0.0000,1,1
9740,532,422,316,209,188,8.710,1.099,0.794,1.0000,0.7216,0.4409,0.0640,0.0000,1,1
9761,536,425,317,210,188,9.519,1.740,0.771,1.0000,0.7307,0.4449,0.0696,0.0000,1,1
9781,536,426,317,210,187,4.168,0.641,0.214,1.0000,0.7338,0.4449,0.0696,0.0000,1,1
9802,538,426,317,209,188,1.321,3.168,0.221,1.0000,0.7338,0.4449,0.0640,0.0000,1,1
9822,539,427,318,210,187,5.084,2.053,0.595,1.0000,0.7368,0.4489,0.0696,0.0000,1,1
9840,539,428,319,209,187,8.473,0.550,-0.672,1.0000,0.7398,0.4530,0.0640,0.0000,1,1
9861,540,431,318,208,187,6.725,1.679,-0.702,1.0000,0.7490,0.4489,0.0583,0.0000,1,1
9882,543,431,319,208,187,6.702,0.542,-0.527,1.0000,0.7490,0.4530,0.0583,0.0000,1,1
9902,541,433,320,208,187,5.748,1.305,-0.939,1.0000,0.7550,0.4570,0.0583,0.0000,1,1
9923,539,435,321,209,187,5.733,3.847,0.366,1.0000,0.7611,0.4610,0.0640,0.0000,1,1
9940,538,436,322,209,188,6.183,2.282,0.489,1.0000,0.7642,0.4650,0.0640,0.0000,1,1
9961,541,436,322,209,188,1.847,2.084,-1.031,1.0000,0.7642,0.4650,0.0640,0.0000,1,1
9981,540,436,321,210,186,3.351,2.221,0.450,1.0000,0.7642,0.4610,0.0696,0.0000,1,1
10001,538,438,321,208,186,5.672,1.687,0.229,1.0000,0.7702,0.4610,0.0583,0.0000,1,1
10023,538,438,320,209,186,7.122,1.374,-0.176,1.0000,0.7702,0.4570,0.0640,0.0000,1,1
10040,544,440,321,209,187,6.969,1.298,-0.611,1.0000,0.7763,0.4610,0.0640,0.0000,1,1
10061,542,442,321,208,188,3.305,0.496,-0.183,1.0000,0.7824,0.4610,0.0583,0.0000,1,1
10081,540,444,320,208,187,3.863,1.832,0.145,1.0000,0.7885,0.4570,0.0583,0.0000,1,1
10102,538,444,318,207,188,6.450,2.466,0.122,1.0000,0.7885,0.4489,0.0527,0.0000,1,1
10122,541,447,318,207,187,8.298,5.481,-0.252,1.0000,0.7976,0.4489,0.0527,0.0000,1,1
10140,545,451,318,206,187,6.847,2.779,-0.214,1.0000,0.8097,0.4489,0.0471,0.0000,1,1
10161,546,452,319,206,188,3.947,1.832,0.176,1.0000,0.8128,0.4530,0.0471,0.0000,1,1
10182,540,453,318,206,187,2.565,0.511,-0.336,1.0000,0.8158,0.4489,0.0471,0.0000,1,1
10202,537,452,314,208,187,3.885,-1.733,-0.351,1.0000,0.8128,0.4328,0.0583,0.0000,1,1
10223,539,451,310,207,187,0.527,-2.878,-1.595,1.0000,0.8097,0.4167,0.0527,0.0000,1,1
10240,538,453,305,207,187,0.489,0.298,-1.260,1.0000,0.8158,0.3966,0.0527,0.0000,1,1
10261,540,451,299,207,186,2.878,1.794,-1.336,1.0000,0.8097,0.3724,0.0527,0.0000,1,1
10281,535,452,293,206,186,5.153,1.840,-1.229,1.0000,0.8128,0.3483,0.0471,0.0000,1,1
10301,534,451,287,206,186,2.855,-0.473,-1.511,1.0000,0.8097,0.3241,0.0471,0.0000,1,1
10323,530,452,281,206,185,-0.092,-1.992,-2.061,1.0000,0.8128,0.2999,0.0471,0.0000,1,1
10340,530,452,278,206,186,-5.725,-4.313,-2.878,1.0000,0.8128,0.2879,0.0471,0.0000,1,1
10361,524,452,273,206,186,0.595,-2.458,-1.756,1.0000,0.8128,0.2677,0.0471,0.0000,1,1
10381,524,450,271,206,186,0.908,-6.710,-2.252,1.0000,0.8067,0.2597,0.0471,0.0000,1,1
10402,522,451,269,206,186,1.435,-13.878,-2.359,1.0000,0.8097,0.2516,0.0471,0.0000,1,1
10422,517,450,266,205,186,-0.588,-14.817,-1.237,1.0000,0.8067,0.2395,0.0415,0.0000,1,1
10440,518,451,261,205,186,-6.069,-17.756,-1.985,1.0000,0.8097,0.2194,0.0415,0.0000,1,1
10461,507,449,256,203,186,-15.321,-27.122,-4.275,1.0000,0.8036,0.1993,0.0302,0.0000,1,1
10482,508,445,250,204,186,-31.183,-23.046,-6.282,1.0000,0.7915,0.1751,0.0358,0.0000,1,1
10502,505,441,244,204,186,-42.962,-29.908,-6.664,1.0000,0.7793,0.1509,0.0358,0.0000,1,1
10523,504,438,243,204,186,-34.748,-36.427,-3.145,1.0000,0.7702,0.1469,0.0358,0.0000,1,1
10540,504,436,245,205,186,-14.198,-31.504,-2.634,1.0000,0.7642,0.1550,0.0415,0.0000,1,1
10561,498,432,249,204,187,-1.000,-18.893,-2.382,1.0000,0.7520,0.1711,0.0358,0.0000,1,1
10581,493,426,256,204,188,-11.099,-37.527,-4.840,1.0000,0.7338,0.1993,0.0358,0.0000,1,1
10602,487,420,264,205,187,-11.939,-22.000,-5.603,1.0000,0.7155,0.2315,0.0415,0.0000,1,1
10623,476,417,274,205,187,-7.771,-1.786,-5.702,1.0000,0.7064,0.2717,0.0415,0.0000,1,1
10640,463,413,281,204,188,-15.695,10.435,-8.038,1.0000,0.6943,0.2999,0.0358,0.0000,1,1
10661,444,410,287,204,189,-25.435,25.122,-9.847,0.9506,0.6852,0.3241,0.0358,0.0000,1,1
10681,429,407,289,203,189,-26.695,34.504,-11.069,0.8670,0.6760,0.3322,0.0302,0.0000,1,1
10702,418,396,289,202,189,-25.176,36.023,-11.679,0.8056,0.6426,0.3322,0.0246,0.0000,1,1
10722,407,384,288,202,189,-29.534,32.740,-11.649,0.7443,0.6062,0.3281,0.0246,0.0000,1,1
10743,396,372,287,202,190,-13.427,36.641,-10.664,0.6829,0.5697,0.3241,0.0246,0.0000,1,1
10760,384,362,286,200,191,-11.244,29.336,-12.282,0.6160,0.5393,0.3201,0.0133,0.0000,1,1
10781,380,349,284,200,192,-19.840,19.954,-13.351,0.5937,0.4998,0.3120,0.0133,0.0000,1,1
10801,375,337,281,200,192,-25.176,31.481,-17.237,0.5658,0.4634,0.2999,0.0133,0.0000,1,1
10823,366,322,278,199,191,-24.664,36.718,-18.695,0.5156,0.4178,0.2879,0.0077,0.0000,1,1
10843,358,307,273,197,191,-13.588,41.962,-20.672,0.4710,0.3722,0.2677,0.0000,0.0000,1,1
10861,354,297,270,197,192,-12.817,38.046,-22.099,0.4487,0.3419,0.2556,0.0000,0.0000,1,1
10881,352,285,266,198,192,-19.916,24.504,-19.282,0.4376,0.3054,0.2395,0.0021,0.0000,1,1
10902,346,275,261,196,192,-23.580,23.534,-17.252,0.4041,0.2750,0.2194,0.0000,0.0000,1,1
10922,342,266,258,196,192,-28.893,25.924,-16.832,0.3818,0.2477,0.2073,0.0000,0.0000,1,1
10944,337,255,255,196,194,-22.305,22.198,-18.489,0.3539,0.2142,0.1952,0.0000,0.0059,1,1
10961,334,248,254,196,195,-11.725,17.588,-18.229,0.3372,0.1930,0.1912,0.0000,0.0119,1,1
10981,331,242,252,197,193,-5.473,20.473,-17.779,0.3204,0.1748,0.1832,0.0000,0.0000,1,1
11002,325,234,250,197,194,-7.771,18.985,-16.786,0.2870,0.1504,0.1751,0.0000,0.0059,1,1
11022,322,227,248,197,194,-12.794,18.969,-16.473,0.2702,0.1292,0.1670,0.0000,0.0059,1,1
11043,320,222,246,195,194,-14.427,13.244,-14.145,0.2591,0.1140,0.1590,0.0000,0.0059,1,1
11060,316,218,245,194,193,-14.092,9.504,-12.221,0.2368,0.1018,0.1550,0.0000,0.0000,1,1
11081,315,213,245,194,194,-11.115,6.237,-9.168,0.2312,0.0866,0.1550,0.0000,0.0059,1,1
11101,310,211,244,195,192,-2.725,7.328,-9.473,0.2033,0.0806,0.1509,0.0000,0.0000,1,1
11122,308,209,243,194,194,0.244,4.771,-11.244,0.1922,0.0745,0.1469,0.0000,0.0059,1,1
11142,305,207,241,193,193,1.878,-2.244,-11.038,0.1754,0.0684,0.1389,0.0000,0.0000,1,1
11163,302,206,240,193,194,2.053,-2.160,-8.519,0.1587,0.0654,0.1348,0.0000,0.0059,1,1
11180,304,205,240,193,193,5.618,-0.328,-6.977,0.1699,0.0623,0.1348,0.0000,0.0000,1,1
11201,302,205,239,193,193,8.198,1.397,-5.489,0.1587,0.0623,0.1308,0.0000,0.0000,1,1
11221,301,202,239,193,193,5.435,1.206,-5.969,0.1531,0.0532,0.1308,0.0000,0.0000,1,1
11243,298,204,238,191,193,0.611,0.878,-5.962,0.1364,0.0593,0.1268,0.0000,0.0000,1,1
11263,297,202,238,192,194,2.061,0.733,-4.389,0.1308,0.0532,0.1268,0.0000,0.0059,1,1
11280,300,204,238,193,192,10.519,2.282,-1.290,0.1475,0.0593,0.1268,0.0000,0.0000,1,1
11301,299,203,239,192,193,15.588,2.664,0.122,0.1420,0.0563,0.1308,0.0000,0.0000,1,1
11321,295,204,237,192,192,14.015,3.313,0.511,0.1197,0.0593,0.1227,0.0000,0.0000,1,1
11342,294,203,237,192,192,8.458,2.656,0.542,0.1141,0.0563,0.1227,0.0000,0.0000,1,1
11362,294,204,238,191,192,6.473,3.969,1.260,0.1141,0.0593,0.1268,0.0000,0.0000,1,1
11383,293,203,237,191,192,11.412,5.244,2.084,0.1085,0.0563,0.1227,0.0000,0.0000,1,1
11400,292,205,237,192,193,15.458,5.321,2.771,0.1029,0.0623,0.1227,0.0000,0.0000,1,1
11421,294,206,237,192,193,13.344,1.588,2.420,0.1141,0.0654,0.1227,0.0000,0.0000,1,1
11441,293,205,238,192,193,10.366,-0.031,2.443,0.1085,0.0623,0.1268,0.0000,0.0000,1,1
11462,289,206,238,191,193,9.748,-0.687,3.061,0.0862,0.0654,0.1268,0.0000,0.0000,1,1
11482,289,206,238,192,193,10.931,-1.061,3.458,0.0862,0.0654,0.1268,0.0000,0.0000,1,1
11503,290,206,237,191,193,12.573,-1.092,4.092,0.0918,0.0654,0.1227,0.0000,0.0000,1,1
11520,291,206,237,191,192,11.504,-2.885,1.870,0.0973,0.0654,0.1227,0.0000,0.0000,1,1
11541,289,205,238,190,191,10.305,-4.824,-0.397,0.0862,0.0623,0.1268,0.0000,0.0000,1,0
11561,288,206,236,190,193,11.435,-5.832,-0.443,0.0806,0.0654,0.1187,0.0000,0.0000,1,0
11581,290,206,236,191,193,13.313,-5.473,0.282,0.0918,0.0654,0.1187,0.0000,0.0000,1,0
11602,288,207,236,191,192,11.947,-7.626,-1.573,0.0806,0.0684,0.1187,0.0000,0.0000,1,0
11622,288,208,236,191,192,11.481,-7.824,-3.336,0.0806,0.0715,0.1187,0.0000,0.0000,1,0
11640,286,208,236,191,192,12.107,-8.824,-3.809,0.0695,0.0715,0.1187,0.0000,0.0000,1,0
11660,286,208,235,191,193,13.137,-10.252,-4.893,0.0695,0.0715,0.1147,0.0000,0.0000,1,0
11682,285,209,235,190,193,12.305,-10.809,-7.237,0.0639,0.0745,0.1147,0.0000,0.0000,1,0
11702,287,209,234,190,192,11.420,-11.389,-9.130,0.0750,0.0745,0.1107,0.0000,0.0000,1,0
11723,287,210,234,190,191,10.969,-10.443,-9.511,0.0750,0.0775,0.1107,0.0000,0.0000,1,0
11743,285,211,233,189,193,12.679,-7.275,-10.237,0.0639,0.0806,0.1066,0.0000,0.0000,1,0
11761,286,212,234,190,193,12.313,-8.290,-9.962,0.0695,0.0836,0.1107,0.0000,0.0000,1,0
11781,286,213,234,190,193,17.679,-8.733,-7.565,0.0695,0.0866,0.1107,0.0000,0.0000,1,0
11802,286,214,234,189,193,13.473,-9.779,-8.710,0.0695,0.0897,0.1107,0.0000,0.0000,1,0
11822,287,216,235,190,195,11.939,-6.687,-10.366,0.0750,0.0958,0.1147,0.0000,0.0119,1,0
11843,286,217,236,189,194,12.748,-3.336,-11.947,0.0695,0.0988,0.1187,0.0000,0.0059,1,0
11860,288,219,235,190,194,13.389,-3.191,-12.092,0.0806,0.1049,0.1147,0.0000,0.0059,1,0
11881,289,221,235,190,193,19.191,-0.954,-13.489,0.0862,0.1110,0.1147,0.0000,0.0000,1,0
11901,290,221,234,190,193,11.115,-0.695,-14.893,0.0918,0.1110,0.1107,0.0000,0.0000,1,0
11921,287,222,234,189,194,10.153,5.153,-12.588,0.0750,0.1140,0.1107,0.0000,0.0059,1,0
11942,287,222,235,190,194,9.168,7.947,-8.725,0.0750,0.1140,0.1147,0.0000,0.0059,1,0
11962,287,223,235,190,194,9.794,5.443,-3.702,0.0750,0.1170,0.1147,0.0000,0.0059,1,0
11980,289,225,235,189,193,11.634,5.885,-0.489,0.0862,0.1231,0.1147,0.0000,0.0000,1,0
12000,286,225,235,189,193,11.924,6.588,1.641,0.0695,0.1231,0.1147,0.0000,0.0000,1,0
12022,287,224,234,190,193,12.160,8.008,3.725,0.0750,0.1201,0.1107,0.0000,0.0000,1,0
12042,287,225,234,190,194,12.756,8.061,4.588,0.0750,0.1231,0.1107,0.0000,0.0059,1,0
12063,284,225,234,191,193,11.137,6.252,2.931,0.0583,0.1231,0.1107,0.0000,0.0000,1,0
12083,284,225,234,190,194,7.832,7.595,-0.527,0.0583,0.1231,0.1107,0.0000,0.0059,1,0
12101,286,225,233,189,193,7.473,8.710,-3.870,0.0695,0.1231,0.1066,0.0000,0.0000,1,0
12121,285,226,232,190,193,9.252,8.458,-5.405,0.0639,0.1261,0.1026,0.0000,0.0000,1,0
12142,285,226,232,190,193,10.870,8.893,-6.069,0.0639,0.1261,0.1026,0.0000,0.0000,1,0
12162,285,226,232,190,195,5.359,6.809,-8.153,0.0639,0.1261,0.1026,0.0000,0.0119,1,0
12183,282,226,232,189,194,2.076,5.237,-7.427,0.0472,0.1261,0.1026,0.0000,0.0059,1,0
12200,284,227,232,189,193,5.679,6.160,-5.969,0.0583,0.1292,0.1026,0.0000,0.0000,1,0
12220,284,227,231,189,194,7.511,2.718,-6.008,0.0583,0.1292,0.0986,0.0000,0.0059,1,0
12241,283,228,232,189,193,8.641,3.924,-5.534,0.0527,0.1322,0.1026,0.0000,0.0000,1,0
12261,282,227,231,189,194,6.031,4.649,-5.908,0.0472,0.1292,0.0986,0.0000,0.0059,1,0
12282,284,227,231,189,193,5.748,4.878,-5.290,0.0583,0.1292,0.0986,0.0000,0.0000,1,0
12302,285,228,230,190,194,8.282,3.344,-4.534,0.0639,0.1322,0.0946,0.0000,0.0059,1,0
12320,287,229,230,189,192,10.679,1.702,-4.443,0.0750,0.1353,0.0946,0.0000,0.0000,1,0
12341,285,229,230,188,193,9.832,2.221,-4.870,0.0639,0.1353,0.0946,0.0000,0.0000,1,0
12362,282,228,229,189,193,8.214,5.550,-4.809,0.0472,0.1322,0.0905,0.0000,0.0000,1,0
12382,285,229,229,190,193,9.656,5.908,-3.573,0.0639,0.1353,0.0905,0.0000,0.0000,1,0
12403,284,227,229,189,193,11.588,3.931,-2.595,0.0583,0.1292,0.0905,0.0000,0.0000,1,0
12423,283,228,230,189,193,11.359,3.160,-3.321,0.0527,0.1322,0.0946,0.0000,0.0000,1,0
12441,283,228,230,190,193,10.450,3.580,-4.389,0.0527,0.1322,0.0946,0.0000,0.0000,1,0
12461,283,228,230,189,193,11.168,3.229,-4.527,0.0527,0.1322,0.0946,0.0000,0.0000,1,0
12482,285,227,230,190,194,11.092,2.534,-3.542,0.0639,0.1292,0.0946,0.0000,0.0059,1,0
12501,284,228,230,190,193,10.542,2.313,-2.779,0.0583,0.1322,0.0946,0.0000,0.0000,1,0
12522,284,229,229,189,194,10.534,1.015,-2.679,0.0583,0.1353,0.0905,0.0000,0.0059,1,0
12542,284,226,229,189,194,10.985,0.176,-3.489,0.0583,0.1261,0.0905,0.0000,0.0059,1,0
12562,284,228,229,189,194,9.115,1.183,-5.000,0.0583,0.1322,0.0905,0.0000,0.0059,1,0
12580,285,228,229,188,195,7.122,2.863,-5.137,0.0639,0.1322,0.0905,0.0000,0.0119,1,0
12601,283,227,228,188,193,7.939,3.947,-4.443,0.0527,0.1292,0.0865,0.0000,0.0000,1,0
12622,284,227,229,189,193,8.397,3.267,-4.710,0.0583,0.1292,0.0905,0.0000,0.0000,1,0
12642,285,227,228,188,193,5.962,2.672,-4.985,0.0639,0.1292,0.0865,0.0000,0.0000,1,0
12663,284,227,228,188,195,6.282,3.534,-5.023,0.0583,0.1292,0.0865,0.0000,0.0119,1,0
12683,283,227,228,189,193,6.366,3.595,-4.947,0.0527,0.1292,0.0865,0.0000,0.0000,1,0
12701,284,227,229,189,191,6.221,3.992,-3.611,0.0583,0.1292,0.0905,0.0000,0.0000,1,0
12721,283,228,230,189,194,7.382,4.885,-2.855,0.0527,0.1322,0.0946,0.0000,0.0059,1,0
12742,281,227,229,189,194,5.015,2.420,-3.221,0.0416,0.1292,0.0905,0.0000,0.0059,1,0
12762,281,228,229,190,192,4.901,2.000,-1.985,0.0416,0.1322,0.0905,0.0000,0.0000,1,0
12783,282,229,229,188,193,6.076,3.695,-1.672,0.0472,0.1353,0.0905,0.0000,0.0000,1,0
12800,284,230,229,189,193,6.328,4.542,-1.336,0.0583,0.1383,0.0905,0.0000,0.0000,1,0
12821,282,230,228,189,192,4.405,4.405,-1.389,0.0472,0.1383,0.0865,0.0000,0.0000,1,0
12841,282,230,228,189,193,4.687,7.252,-1.847,0.0472,0.1383,0.0865,0.0000,0.0000,1,0
12861,281,231,229,188,194,4.008,5.618,-2.137,0.0416,0.1413,0.0905,0.0000,0.0059,1,0
12882,281,230,229,188,194,4.145,1.740,-1.481,0.0416,0.1383,0.0905,0.0000,0.0059,1,0
12902,280,231,228,189,193,4.206,2.771,-1.809,0.0360,0.1413,0.0865,0.0000,0.0000,1,0
12920,281,231,229,189,193,5.954,3.786,-2.534,0.0416,0.1413,0.0905,0.0000,0.0000,1,0
12940,283,231,229,188,193,4.916,3.145,-2.328,0.0527,0.1413,0.0905,0.0000,0.0000,1,0
12961,281,232,230,189,194,6.725,3.679,-1.229,0.0416,0.1444,0.0946,0.0000,0.0059,1,0
12982,281,233,228,189,194,5.397,1.847,-0.153,0.0416,0.1474,0.0865,0.0000,0.0059,1,0
13003,281,234,229,190,194,4.344,1.481,-0.023,0.0416,0.1504,0.0905,0.0000,0.0059,1,0
13023,281,235,229,189,194,3.489,3.015,-0.580,0.0416,0.1535,0.0905,0.0000,0.0059,1,0
13041,281,234,229,188,194,4.351,2.939,-0.496,0.0416,0.1504,0.0905,0.0000,0.0059,1,0
13061,280,235,229,188,194,5.321,2.382,-0.542,0.0360,0.1535,0.0905,0.0000,0.0059,1,0
13082,281,237,229,189,194,5.145,3.603,-0.740,0.0416,0.1596,0.0905,0.0000,0.0059,1,0
13102,279,237,229,188,194,3.573,3.992,-0.290,0.0304,0.1596,0.0905,0.0000,0.0059,1,0
13123,281,238,228,189,194,3.855,2.351,1.198,0.0416,0.1626,0.0865,0.0000,0.0059,1,0
13143,281,237,228,189,193,6.397,1.221,1.496,0.0416,0.1596,0.0865,0.0000,0.0000,1,0
13161,280,237,228,189,193,8.084,1.008,0.565,0.0360,0.1596,0.0865,0.0000,0.0000,1,0
13181,280,238,229,189,193,8.275,1.168,-0.076,0.0360,0.1626,0.0905,0.0000,0.0000,1,0
13201,280,237,228,190,192,6.237,1.435,-0.038,0.0360,0.1596,0.0865,0.0000,0.0000,1,0
13222,280,238,227,189,193,5.221,-0.481,0.183,0.0360,0.1626,0.0825,0.0000,0.0000,1,0
13242,281,238,228,189,194,6.290,-0.168,-0.977,0.0416,0.1626,0.0865,0.0000,0.0059,1,0
13260,279,238,229,189,192,7.267,1.748,-1.908,0.0304,0.1626,0.0905,0.0000,0.0000,1,0
13280,281,238,229,189,193,8.344,2.748,-1.534,0.0416,0.1626,0.0905,0.0000,0.0000,1,0
13301,282,240,228,188,193,8.130,2.466,-0.710,0.0472,0.1687,0.0865,0.0000,0.0000,1,0
13321,281,240,229,188,192,8.290,3.542,0.328,0.0416,0.1687,0.0905,0.0000,0.0000,1,0
13342,279,239,229,188,192,8.328,4.832,0.359,0.0304,0.1656,0.0905,0.0000,0.0000,1,0
13362,279,239,228,188,193,8.656,2.840,0.420,0.0304,0.1656,0.0865,0.0000,0.0000,1,0
13383,280,237,227,189,192,8.664,-0.198,1.168,0.0360,0.1596,0.0825,0.0000,0.0000,1,0
13400,281,237,228,189,194,9.282,-1.305,1.649,0.0416,0.1596,0.0865,0.0000,0.0059,1,0
13421,281,237,228,190,193,11.565,-1.359,2.321,0.0416,0.1596,0.0865,0.0000,0.0000,1,0
13441,280,236,229,188,194,11.435,-1.053,2.130,0.0360,0.1565,0.0905,0.0000,0.0059,1,0
13462,278,237,229,188,193,9.176,-1.229,2.015,0.0248,0.1596,0.0905,0.0000,0.0000,1,0
13483,279,237,228,190,193,7.863,-0.679,1.771,0.0304,0.1596,0.0865,0.0000,0.0000,1,0
13504,280,238,228,188,194,8.183,-1.282,1.847,0.0360,0.1626,0.0865,0.0000,0.0059,1,0
13520,280,238,227,189,193,7.802,-1.252,1.275,0.0360,0.1626,0.0825,0.0000,0.0000,1,0
13540,280,239,228,189,192,7.985,0.267,0.496,0.0360,0.1656,0.0865,0.0000,0.0000,1,0
13561,280,240,228,189,192,7.969,-1.595,0.221,0.0360,0.1687,0.0865,0.0000,0.0000,1,0
13581,279,241,228,189,194,7.206,-2.802,0.000,0.0304,0.1717,0.0865,0.0000,0.0059,1,0
13602,280,240,228,188,192,6.427,-3.985,0.565,0.0360,0.1687,0.0865,0.0000,0.0000,1,0
13622,278,241,228,188,193,8.328,-4.450,0.817,0.0248,0.1717,0.0865,0.0000,0.0000,1,0
13640,278,241,228,189,194,8.351,-5.565,0.931,0.0248,0.1717,0.0865,0.0000,0.0059,1,0
13660,280,241,228,189,193,8.618,-4.809,1.588,0.0360,0.1717,0.0865,0.0000,0.0000,1,0
13682,279,242,228,188,193,7.962,-5.427,2.321,0.0304,0.1748,0.0865,0.0000,0.0000,1,0
13702,278,242,227,188,193,6.992,-6.649,3.206,0.0248,0.1748,0.0825,0.0000,0.0000,1,0
13723,280,242,227,188,193,7.412,-5.695,3.634,0.0360,0.1748,0.0825,0.0000,0.0000,1,0
13743,278,242,228,187,192,8.542,-5.641,4.366,0.0248,0.1748,0.0865,0.0000,0.0000,1,0
13761,278,241,228,188,193,8.397,-6.153,4.847,0.0248,0.1717,0.0865,0.0000,0.0000,1,0
13781,279,240,227,188,193,7.336,-6.305,5.183,0.0304,0.1687,0.0825,0.0000,0.0000,1,0
13802,279,241,227,189,193,7.046,-5.863,5.023,0.0304,0.1717,0.0825,0.0000,0.0000,1,0
13822,279,241,227,187,193,8.947,-6.557,5.252,0.0304,0.1717,0.0825,0.0000,0.0000,1,0
13842,281,241,227,189,193,9.374,-7.206,5.489,0.0416,0.1717,0.0825,0.0000,0.0000,1,0
13863,279,241,227,189,194,8.550,-7.031,5.466,0.0304,0.1717,0.0825,0.0000,0.0059,1,0
13880,279,241,227,188,192,8.466,-5.664,5.962,0.0304,0.1717,0.0825,0.0000,0.0000,1,0
13901,279,242,228,189,193,8.595,-5.168,6.313,0.0304,0.1748,0.0865,0.0000,0.0000,1,0
13921,283,241,228,189,195,7.962,-5.115,6.771,0.0527,0.1717,0.0865,0.0000,0.0119,1,0
13942,280,242,227,188,194,7.076,-6.198,7.412,0.0360,0.1748,0.0825,0.0000,0.0059,1,0
13962,278,242,227,188,193,8.878,-5.794,7.733,0.0248,0.1748,0.0825,0.0000,0.0000,1,0
13980,279,243,227,189,192,9.053,-2.885,7.901,0.0304,0.1778,0.0825,0.0000,0.0000,1,0
14000,278,242,228,188,192,11.397,-0.183,8.130,0.0248,0.1748,0.0865,0.0000,0.0000,1,0
14022,278,243,228,188,193,9.527,-0.420,7.061,0.0248,0.1778,0.0865,0.0000,0.0000,1,0
14042,278,245,228,189,192,8.344,-0.107,6.725,0.0248,0.1839,0.0865,0.0000,0.0000,1,0
14063,279,243,228,189,193,8.168,-0.427,6.969,0.0304,0.1778,0.0865,0.0000,0.0000,1,0
14083,281,243,227,188,193,9.244,-2.015,7.374,0.0416,0.1778,0.0825,0.0000,0.0000,1,0
14101,281,243,226,188,193,11.382,-1.725,7.221,0.0416,0.1778,0.0784,0.0000,0.0000,1,0
14121,278,243,227,187,193,10.031,-2.420,7.008,0.0248,0.1778,0.0825,0.0000,0.0000,1,0
14141,279,246,227,189,192,9.802,-2.809,7.351,0.0304,0.1869,0.0825,0.0000,0.0000,1,0
14162,280,244,227,188,192,8.985,-3.748,8.061,0.0360,0.1808,0.0825,0.0000,0.0000,1,0
14182,279,246,228,188,193,9.290,-4.038,8.893,0.0304,0.1869,0.0865,0.0000,0.0000,1,0
14203,278,245,227,188,192,11.145,-4.855,8.466,0.0248,0.1839,0.0825,0.0000,0.0000,1,0
14220,280,245,227,188,194,10.771,-5.008,8.153,0.0360,0.1839,0.0825,0.0000,0.0059,1,0
14241,279,244,229,188,193,9.740,-5.023,8.176,0.0304,0.1808,0.0905,0.0000,0.0000,1,0
14261,279,243,229,188,194,4.534,-4.740,7.748,0.0304,0.1778,0.0905,0.0000,0.0059,1,0
14282,279,244,228,188,194,8.313,-4.626,7.893,0.0304,0.1808,0.0865,0.0000,0.0059,1,0
14302,279,242,228,188,195,8.229,-6.084,6.840,0.0304,0.1748,0.0865,0.0000,0.0119,1,1
14323,276,242,227,189,195,6.786,-6.893,5.931,0.0137,0.1748,0.0825,0.0000,0.0119,1,1
14340,278,240,227,189,195,6.374,-6.748,4.794,0.0248,0.1687,0.0825,0.0000,0.0119,1,1
14361,278,239,228,188,194,10.298,-7.481,5.924,0.0248,0.1656,0.0865,0.0000,0.0059,1,1
14382,278,238,229,189,195,8.412,-10.519,8.817,0.0248,0.1626,0.0905,0.0000,0.0119,1,1
14403,281,238,229,189,195,9.298,-11.672,11.244,0.0416,0.1626,0.0905,0.0000,0.0119,1,1
14423,285,239,230,188,194,6.366,-13.191,11.382,0.0639,0.1656,0.0946,0.0000,0.0059,1,1
14441,287,239,229,188,194,4.939,-17.664,13.061,0.0750,0.1656,0.0905,0.0000,0.0059,1,1
14461,291,241,231,188,194,11.481,-22.527,13.985,0.0973,0.1717,0.0986,0.0000,0.0059,1,1
14481,295,248,233,188,195,16.557,-27.137,17.061,0.1197,0.1930,0.1066,0.0000,0.0119,1,1
14502,305,257,236,189,194,17.481,-31.229,17.824,0.1754,0.2203,0.1187,0.0000,0.0059,1,1
14522,310,265,239,188,194,12.840,-34.420,20.260,0.2033,0.2446,0.1308,0.0000,0.0059,1,1
14540,312,273,241,189,193,8.969,-32.290,22.687,0.2145,0.2689,0.1389,0.0000,0.0000,1,1
14560,318,289,246,189,194,9.702,-28.519,25.603,0.2479,0.3175,0.1590,0.0000,0.0059,1,1
14581,321,305,251,189,195,13.947,-30.885,27.221,0.2647,0.3662,0.1791,0.0000,0.0119,1,1
14602,325,321,258,190,196,21.855,-40.061,26.237,0.2870,0.4148,0.2073,0.0000,0.0178,1,1
14623,333,336,265,189,196,23.260,-41.496,27.092,0.3316,0.4603,0.2355,0.0000,0.0178,1,1
14640,337,343,268,188,196,26.817,-33.458,27.962,0.3539,0.4816,0.2476,0.0000,0.0178,1,1
14661,345,355,272,190,197,27.550,-14.885,31.061,0.3985,0.5181,0.2637,0.0000,0.0238,1,1
14681,352,372,277,189,194,35.992,-12.359,32.252,0.4376,0.5697,0.2838,0.0000,0.0059,1,1
14702,360,392,286,189,195,38.290,-26.992,31.107,0.4822,0.6305,0.3201,0.0000,0.0119,1,1
14723,369,418,298,190,196,23.618,-31.084,29.763,0.5324,0.7095,0.3684,0.0000,0.0178,1,1
14741,379,446,310,191,194,33.458,-7.099,30.000,0.5881,0.7945,0.4167,0.0000,0.0059,1,1
14761,400,464,315,192,193,76.947,26.221,26.473,0.7053,0.8492,0.4369,0.0000,0.0000,1,1
14781,431,476,308,194,194,104.969,47.931,19.794,0.8781,0.8857,0.4087,0.0000,0.0059,1,1
14802,457,479,297,194,192,100.061,54.916,13.359,1.0000,0.8948,0.3644,0.0000,0.0000,1,1
14822,480,483,288,196,192,47.160,51.458,17.191,1.0000,0.9069,0.3281,0.0000,0.0000,1,1
14840,497,485,280,197,191,29.183,60.359,18.931,1.0000,0.9130,0.2959,0.0000,0.0000,1,1
14861,508,485,273,197,190,53.855,58.046,9.328,1.0000,0.9130,0.2677,0.0000,0.0000,1,1
14882,519,486,265,196,190,69.321,46.221,-0.557,1.0000,0.9161,0.2355,0.0000,0.0000,1,1
14902,523,486,257,196,189,74.298,48.573,-2.656,1.0000,0.9161,0.2033,0.0000,0.0000,1,1
14923,528,487,250,197,188,37.855,45.099,-9.908,1.0000,0.9191,0.1751,0.0000,0.0000,1,1
14940,531,486,242,198,187,18.626,46.779,-12.351,1.0000,0.9161,0.1429,0.0021,0.0000,1,1
14961,531,484,234,199,187,28.534,43.435,-12.565,1.0000,0.9100,0.1107,0.0077,0.0000,1,1
14981,532,482,226,199,186,56.176,36.893,-10.000,1.0000,0.9039,0.0784,0.0077,0.0000,1,1
15002,534,481,220,200,186,46.153,31.351,-12.931,1.0000,0.9009,0.0543,0.0133,0.0000,1,1
15022,531,480,216,201,186,26.870,22.847,-12.878,1.0000,0.8978,0.0382,0.0190,0.0000,1,1
15040,530,479,212,201,185,24.061,17.809,-12.924,1.0000,0.8948,0.0221,0.0190,0.0000,1,1
15061,530,476,210,201,186,19.305,13.313,-14.595,1.0000,0.8857,0.0140,0.0190,0.0000,1,1
15082,531,475,209,201,184,23.687,12.191,-16.550,1.0000,0.8826,0.0100,0.0190,0.0000,1,1
15102,532,474,207,202,184,21.466,8.489,-16.183,1.0000,0.8796,0.0019,0.0246,0.0000,1,1
15122,537,474,207,200,183,19.855,4.534,-14.000,1.0000,0.8796,0.0019,0.0133,0.0000,1,1
15143,532,474,206,200,183,13.183,9.908,-14.260,1.0000,0.8796,0.0000,0.0133,0.0000,1,1
15160,533,473,206,200,183,7.336,10.695,-15.328,1.0000,0.8766,0.0000,0.0133,0.0000,1,1
15181,537,472,205,199,183,2.710,10.748,-13.061,1.0000,0.8735,0.0000,0.0077,0.0000,1,1
15201,530,470,205,199,182,8.069,8.153,-7.618,1.0000,0.8674,0.0000,0.0077,0.0000,1,1
15222,530,470,204,200,183,11.450,5.733,-7.481,1.0000,0.8674,0.0000,0.0133,0.0000,1,1
15242,529,468,204,201,183,6.916,5.244,-8.092,1.0000,0.8614,0.0000,0.0190,0.0000,1,1
15260,527,468,204,201,183,1.137,3.229,-6.947,1.0000,0.8614,0.0000,0.0190,0.0000,1,1
15280,526,466,204,200,181,-0.672,0.802,-3.847,1.0000,0.8553,0.0000,0.0133,0.0000,1,1
15302,530,467,204,200,182,1.275,6.290,-5.550,1.0000,0.8583,0.0000,0.0133,0.0000,1,1
15322,530,465,203,200,182,6.916,5.718,-4.893,1.0000,0.8523,0.0000,0.0133,0.0000,1,1
15343,527,464,204,200,182,7.473,1.786,-4.351,1.0000,0.8492,0.0000,0.0133,0.0000,1,1
15363,528,462,204,199,182,2.809,1.802,-3.344,1.0000,0.8431,0.0000,0.0077,0.0000,1,1
15381,526,462,202,199,182,4.153,4.183,-3.473,1.0000,0.8431,0.0000,0.0077,0.0000,1,1
15401,531,461,203,199,182,6.656,3.290,-4.168,1.0000,0.8401,0.0000,0.0077,0.0000,1,1
15421,528,460,202,198,182,10.969,0.252,-2.595,1.0000,0.8371,0.0000,0.0021,0.0000,1,1
15442,526,459,202,198,181,5.473,1.542,-3.466,1.0000,0.8340,0.0000,0.0021,0.0000,1,1
15462,528,460,202,199,181,3.580,1.397,-4.130,1.0000,0.8371,0.0000,0.0077,0.0000,1,1
15480,527,455,201,199,181,5.244,1.618,-3.771,1.0000,0.8219,0.0000,0.0077,0.0000,1,1
15500,526,454,200,198,181,11.481,2.534,-4.076,1.0000,0.8188,0.0000,0.0021,0.0000,1,1
15521,528,452,199,199,182,12.015,0.885,-2.679,1.0000,0.8128,0.0000,0.0077,0.0000,1,1
15541,525,451,199,197,182,8.481,-1.519,-2.344,1.0000,0.8097,0.0000,0.0000,0.0000,1,1
15562,520,450,199,198,181,7.405,0.443,-2.168,1.0000,0.8067,0.0000,0.0021,0.0000,1,1
15583,524,449,199,197,181,11.427,0.198,-2.061,1.0000,0.8036,0.0000,0.0000,0.0000,1,1
15601,525,448,199,196,181,6.817,-0.160,-2.206,1.0000,0.8006,0.0000,0.0000,0.0000,1,1
15621,524,450,199,198,181,1.496,-0.756,-2.588,1.0000,0.8067,0.0000,0.0021,0.0000,1,1
15642,522,448,198,198,181,4.412,0.023,-2.901,1.0000,0.8006,0.0000,0.0021,0.0000,1,1
15662,522,447,198,198,181,6.817,2.626,-4.000,1.0000,0.7976,0.0000,0.0021,0.0000,1,1
15683,521,447,199,197,181,8.870,3.053,-3.282,1.0000,0.7976,0.0000,0.0000,0.0000,1,1
15703,521,446,198,197,181,8.939,0.260,-2.015,1.0000,0.7945,0.0000,0.0000,0.0000,1,1
15721,522,447,198,196,182,7.008,0.527,-2.916,1.0000,0.7976,0.0000,0.0000,0.0000,1,1
15741,526,445,197,196,181,9.214,3.260,-2.160,1.0000,0.7915,0.0000,0.0000,0.0000,1,1
15761,524,447,197,195,180,9.305,4.275,-2.420,1.0000,0.7976,0.0000,0.0000,0.0000,1,1
15782,523,446,197,196,181,4.794,3.954,-3.397,1.0000,0.7945,0.0000,0.0000,0.0000,1,1
15802,524,444,197,196,180,6.954,-0.328,-1.351,1.0000,0.7885,0.0000,0.0000,0.0000,1,1
15823,520,443,196,196,180,1.420,2.053,-2.061,1.0000,0.7854,0.0000,0.0000,0.0000,1,1
15840,517,444,197,197,181,2.817,4.153,-2.870,1.0000,0.7885,0.0000,0.0000,0.0000,1,1
15861,518,443,196,197,181,8.840,2.031,-1.405,1.0000,0.7854,0.0000,0.0000,0.0000,1,1
15881,522,444,196,196,182,4.061,-0.573,-0.611,1.0000,0.7885,0.0000,0.0000,0.0000,1,1
15902,521,444,196,195,181,3.557,-1.221,-0.779,1.0000,0.7885,0.0000,0.0000,0.0000,1,1
15922,524,445,196,196,181,6.511,0.534,-1.588,1.0000,0.7915,0.0000,0.0000,0.0000,1,1
15943,523,443,196,195,181,7.008,0.397,-1.702,1.0000,0.7854,0.0000,0.0000,0.0000,1,1
15960,518,443,195,196,181,5.298,1.198,-2.733,1.0000,0.7854,0.0000,0.0000,0.0000,1,1
15981,519,444,195,195,180,5.557,0.672,-2.901,1.0000,0.7885,0.0000,0.0000,0.0000,1,1
16001,523,446,196,196,180,6.588,1.038,-1.198,1.0000,0.7945,0.0000,0.0000,0.0000,1,1
16022,521,443,195,196,181,8.450,2.008,-0.771,1.0000,0.7854,0.0000,0.0000,0.0000,1,1
16042,518,443,194,195,181,7.244,2.015,-0.733,1.0000,0.7854,0.0000,0.0000,0.0000,1,1
16063,517,443,194,195,180,2.687,3.473,-1.435,1.0000,0.7854,0.0000,0.0000,0.0000,1,1
16080,516,443,194,196,181,7.466,2.649,0.160,1.0000,0.7854,0.0000,0.0000,0.0000,1,1
16100,518,443,195,195,180,7.679,-1.588,0.511,1.0000,0.7854,0.0000,0.0000,0.0000,1,1
16121,517,443,194,195,181,5.756,-1.168,-0.962,1.0000,0.7854,0.0000,0.0000,0.0000,1,1
16141,517,442,194,195,180,4.290,-1.298,-1.275,1.0000,0.7824,0.0000,0.0000,0.0000,1,1
16162,515,443,194,195,181,5.389,-0.229,-0.916,1.0000,0.7854,0.0000,0.0000,0.0000,1,1
16182,516,441,194,196,181,4.840,-0.466,-0.687,1.0000,0.7793,0.0000,0.0000,0.0000,1,1
16203,514,442,194,194,181,2.985,-1.496,-0.473,1.0000,0.7824,0.0000,0.0000,0.0000,1,1
16220,512,441,193,195,180,3.962,1.710,-0.336,1.0000,0.7793,0.0000,0.0000,0.0000,1,1
16241,510,441,194,194,181,3.511,1.519,-0.427,1.0000,0.7793,0.0000,0.0000,0.0000,1,1
16261,508,440,194,194,181,3.061,0.656,-0.618,1.0000,0.7763,0.0000,0.0000,0.0000,1,1
16282,511,438,194,195,180,3.008,-2.313,-0.626,1.0000,0.7702,0.0000,0.0000,0.0000,1,1
16302,513,438,194,194,180,1.641,-3.878,-0.740,1.0000,0.7702,0.0000,0.0000,0.0000,1,1
16323,511,437,193,194,180,4.565,-0.229,-0.992,1.0000,0.7672,0.0000,0.0000,0.0000,1,1
16340,512,436,193,194,180,8.359,3.481,-1.908,1.0000,0.7642,0.0000,0.0000,0.0000,1,1
16361,513,436,194,193,180,5.740,2.527,-1.336,1.0000,0.7642,0.0000,0.0000,0.0000,1,1
16381,510,436,195,192,179,4.176,1.603,-1.725,1.0000,0.7642,0.0000,0.0000,0.0000,1,1
16401,508,434,194,192,180,3.878,2.191,-1.389,1.0000,0.7581,0.0000,0.0000,0.0000,1,1
16422,506,432,194,193,180,5.718,2.321,-1.023,1.0000,0.7520,0.0000,0.0000,0.0000,1,1
16442,506,433,194,193,180,5.802,2.855,-1.947,1.0000,0.7550,0.0000,0.0000,0.0000,1,1
16460,504,431,194,194,180,5.702,1.939,-1.649,1.0000,0.7490,0.0000,0.0000,0.0000,1,1
16480,511,432,195,193,180,5.939,0.321,-1.359,1.0000,0.7520,0.0000,0.0000,0.0000,1,1
16501,507,430,194,193,180,5.099,-0.313,-1.420,1.0000,0.7459,0.0000,0.0000,0.0000,1,1
16521,508,430,193,192,180,4.557,0.427,-1.450,1.0000,0.7459,0.0000,0.0000,0.0000,1,1
16542,510,430,194,193,180,8.649,0.840,-0.824,1.0000,0.7459,0.0000,0.0000,0.0000,1,1
16562,507,430,194,193,180,7.290,0.756,-0.496,1.0000,0.7459,0.0000,0.0000,0.0000,1,1
16583,508,430,194,193,180,6.718,-0.504,-0.328,1.0000,0.7459,0.0000,0.0000,0.0000,1,1
16600,505,431,194,192,180,4.435,-1.740,-0.458,1.0000,0.7490,0.0000,0.0000,0.0000,1,1
16621,505,428,194,192,180,5.221,-3.588,0.313,1.0000,0.7398,0.0000,0.0000,0.0000,1,1
16641,505,430,194,194,181,5.725,-7.603,0.931,1.0000,0.7459,0.0000,0.0000,0.0000,1,1
16662,502,429,194,193,181,5.725,-7.038,1.046,1.0000,0.7429,0.0000,0.0000,0.0000,1,1
16682,504,431,194,193,180,4.908,-9.771,0.687,1.0000,0.7490,0.0000,0.0000,0.0000,1,1
16703,505,434,194,193,180,3.656,-9.863,1.580,1.0000,0.7581,0.0000,0.0000,0.0000,1,1
16720,504,436,196,193,179,1.870,-11.885,2.695,1.0000,0.7642,0.0000,0.0000,0.0000,1,1
16740,502,436,195,194,180,-1.565,-14.550,3.542,1.0000,0.7642,0.0000,0.0000,0.0000,1,1
16761,498,439,195,194,180,0.702,-9.794,2.634,1.0000,0.7733,0.0000,0.0000,0.0000,1,1
16781,501,442,196,194,180,3.634,-10.511,1.160,1.0000,0.7824,0.0000,0.0000,0.0000,1,1
16802,503,446,196,192,180,1.794,-12.565,-0.588,1.0000,0.7945,0.0000,0.0000,0.0000,1,1
16822,502,449,197,193,180,-6.878,-18.168,-1.863,1.0000,0.8036,0.0000,0.0000,0.0000,1,1
16840,500,450,199,192,180,-15.427,-15.313,-0.298,1.0000,0.8067,0.0000,0.0000,0.0000,1,1
16860,499,448,199,193,181,-10.931,-12.580,-0.794,1.0000,0.8006,0.0000,0.0000,0.0000,1,1
16881,496,447,200,193,180,-12.931,-18.496,-2.229,1.0000,0.7976,0.0000,0.0000,0.0000,1,1
16901,497,446,202,193,180,-17.794,-23.092,-3.893,1.0000,0.7945,0.0000,0.0000,0.0000,1,1
16922,494,441,206,193,180,-20.756,-27.076,-3.023,1.0000,0.7793,0.0000,0.0000,0.0000,1,1
16942,491,435,209,192,181,-21.656,-27.786,-5.168,1.0000,0.7611,0.0100,0.0000,0.0000,1,1
16963,487,428,212,192,182,-20.740,-22.305,-8.237,1.0000,0.7398,0.0221,0.0000,0.0000,1,1
16980,480,421,216,192,181,-15.046,-17.893,-10.313,1.0000,0.7186,0.0382,0.0000,0.0000,1,1
17002,469,412,223,193,180,-5.557,-14.863,-10.290,1.0000,0.6912,0.0664,0.0000,0.0000,1,1
17022,457,406,230,192,181,-7.679,-10.817,-8.969,1.0000,0.6730,0.0946,0.0000,0.0000,1,1
17042,447,400,235,192,181,-3.618,-6.313,-7.634,0.9674,0.6548,0.1147,0.0000,0.0000,1,1
17063,434,397,240,191,181,-11.618,-3.664,-6.542,0.8949,0.6457,0.1348,0.0000,0.0000,1,1
17080,424,398,245,192,181,-3.977,-1.725,-6.809,0.8391,0.6487,0.1550,0.0000,0.0000,1,1
17101,412,397,249,191,181,-5.450,3.237,-8.985,0.7722,0.6457,0.1711,0.0000,0.0000,1,1
17121,400,392,253,191,182,-18.992,4.397,-11.321,0.7053,0.6305,0.1872,0.0000,0.0000,1,1
17142,393,388,255,190,181,-13.718,11.679,-13.496,0.6662,0.6183,0.1952,0.0000,0.0000,1,1
17162,385,384,256,190,182,-10.282,10.267,-15.389,0.6216,0.6062,0.1993,0.0000,0.0000,1,1
17180,379,377,258,190,182,-14.282,12.084,-17.198,0.5881,0.5849,0.2073,0.0000,0.0000,1,1
17200,373,366,257,190,183,-10.099,11.649,-17.779,0.5547,0.5515,0.2033,0.0000,0.0000,1,1
17222,368,358,257,189,183,-11.443,14.687,-18.511,0.5268,0.5272,0.2033,0.0000,0.0000,1,1
17242,362,348,257,190,184,-14.405,15.748,-21.351,0.4933,0.4968,0.2033,0.0000,0.0000,1,1
17263,357,339,257,189,184,-15.351,12.847,-21.832,0.4654,0.4695,0.2033,0.0000,0.0000,1,1
17280,349,329,256,189,185,-15.015,18.069,-22.397,0.4208,0.4391,0.1993,0.0000,0.0000,1,1
17301,345,319,254,189,186,-10.977,18.527,-24.481,0.3985,0.4087,0.1912,0.0000,0.0000,1,1
17321,341,308,251,189,185,-15.214,19.214,-27.160,0.3762,0.3753,0.1791,0.0000,0.0000,1,1
17341,335,298,249,188,186,-18.702,25.695,-27.786,0.3427,0.3449,0.1711,0.0000,0.0000,1,1
17362,331,286,246,188,186,-21.351,22.137,-25.802,0.3204,0.3084,0.1590,0.0000,0.0000,1,1
17383,329,276,245,188,188,-32.809,13.557,-24.939,0.3093,0.2780,0.1550,0.0000,0.0000,1,1
17400,325,267,242,188,186,-42.481,7.282,-26.076,0.2870,0.2507,0.1429,0.0000,0.0000,1,1
17421,321,260,241,187,187,-44.588,8.550,-23.802,0.2647,0.2294,0.1389,0.0000,0.0000,1,1
17442,316,254,240,188,188,-30.176,14.939,-20.260,0.2368,0.2112,0.1348,0.0000,0.0000,1,1
17461,313,246,239,186,188,-12.473,13.260,-17.374,0.2200,0.1869,0.1308,0.0000,0.0000,1,1
17482,308,239,239,186,187,-6.137,8.977,-18.985,0.1922,0.1656,0.1308,0.0000,0.0000,1,1
17502,305,233,238,186,189,-11.710,5.603,-17.511,0.1754,0.1474,0.1268,0.0000,0.0000,1,1
17523,302,228,237,186,189,-18.046,8.397,-15.809,0.1587,0.1322,0.1227,0.0000,0.0000,1,1
17540,300,226,235,185,187,-13.084,5.183,-13.573,0.1475,0.1261,0.1147,0.0000,0.0000,1,1
17561,297,223,234,187,188,-3.870,0.878,-12.076,0.1308,0.1170,0.1107,0.0000,0.0000,1,1
17581,293,220,234,187,190,5.137,-1.710,-10.924,0.1085,0.1079,0.1107,0.0000,0.0000,1,1
17602,292,218,233,187,190,10.489,0.878,-8.863,0.1029,0.1018,0.1066,0.0000,0.0000,1,1
17622,291,216,234,186,190,9.282,-0.420,-5.748,0.0973,0.0958,0.1107,0.0000,0.0000,1,1
17643,292,216,234,186,190,9.275,-2.160,-4.153,0.1029,0.0958,0.1107,0.0000,0.0000,1,1
17660,292,215,233,187,189,9.588,-2.053,-4.305,0.1029,0.0927,0.1066,0.0000,0.0000,1,1
17680,289,213,233,187,189,10.458,-2.992,-3.992,0.0862,0.0866,0.1066,0.0000,0.0000,1,1
17701,289,213,233,185,189,9.763,-1.122,-3.863,0.0862,0.0866,0.1066,0.0000,0.0000,1,1
17721,287,213,232,185,190,10.229,-0.855,-2.565,0.0750,0.0866,0.1026,0.0000,0.0000,1,1
17742,287,213,232,185,190,10.397,-0.947,-2.779,0.0750,0.0866,0.1026,0.0000,0.0000,1,1
17762,286,213,232,186,190,7.901,0.420,-3.878,0.0695,0.0866,0.1026,0.0000,0.0000,1,1
17780,286,213,233,186,190,10.542,0.985,-3.153,0.0695,0.0866,0.1066,0.0000,0.0000,1,1
17800,285,213,232,186,189,13.565,-1.000,-1.580,0.0639,0.0866,0.1026,0.0000,0.0000,1,1
17821,285,214,232,186,189,11.710,-1.061,-0.244,0.0639,0.0897,0.1026,0.0000,0.0000,1,1
17841,285,214,232,184,190,15.229,-2.489,0.122,0.0639,0.0897,0.1026,0.0000,0.0000,1,1
17862,285,215,232,186,189,18.595,-1.756,-0.565,0.0639,0.0927,0.1026,0.0000,0.0000,1,1
17882,284,215,233,185,189,18.183,-2.160,-0.573,0.0583,0.0927,0.1066,0.0000,0.0000,1,1
17903,284,217,233,185,190,15.481,-3.702,0.229,0.0583,0.0988,0.1066,0.0000,0.0000,1,1
17923,286,217,233,186,190,9.160,-6.389,0.603,0.0695,0.0988,0.1066,0.0000,0.0000,1,1
17941,285,217,232,186,189,7.939,-4.824,0.282,0.0639,0.0988,0.1026,0.0000,0.0000,1,1
17961,285,219,234,185,192,10.344,-1.336,-0.756,0.0639,0.1049,0.1107,0.0000,0.0000,1,1
17981,284,219,234,186,188,11.786,0.130,-1.435,0.0583,0.1049,0.1107,0.0000,0.0000,1,1
18002,282,220,235,186,189,11.015,-2.130,-1.427,0.0472,0.1079,0.1147,0.0000,0.0000,1,1
18022,284,219,235,185,188,8.290,-0.313,0.244,0.0583,0.1049,0.1147,0.0000,0.0000,1,1
18043,283,221,235,185,190,10.534,-0.435,-0.366,0.0527,0.1110,0.1147,0.0000,0.0000,1,1
18060,283,222,235,186,188,10.313,-2.901,0.511,0.0527,0.1140,0.1147,0.0000,0.0000,1,1
18081,284,222,235,186,188,12.695,-2.534,1.504,0.0583,0.1140,0.1147,0.0000,0.0000,1,1
18101,281,224,237,186,189,11.328,-2.664,0.595,0.0416,0.1201,0.1227,0.0000,0.0000,1,1
18122,282,225,236,185,189,10.840,0.298,-0.031,0.0472,0.1231,0.1187,0.0000,0.0000,1,1
18141,282,225,235,185,189,10.481,-2.183,0.641,0.0472,0.1231,0.1147,0.0000,0.0000,1,1
18162,281,227,235,185,189,10.725,-0.290,0.901,0.0416,0.1292,0.1147,0.0000,0.0000,1,1
18182,282,227,236,185,188,10.878,-0.908,1.947,0.0472,0.1292,0.1187,0.0000,0.0000,1,1
18203,281,228,235,185,188,11.725,-0.496,2.817,0.0416,0.1322,0.1147,0.0000,0.0000,1,1
18220,282,229,237,185,189,14.137,-0.206,2.618,0.0472,0.1353,0.1227,0.0000,0.0000,1,1
18241,283,230,238,185,189,11.847,1.275,1.053,0.0527,0.1383,0.1268,0.0000,0.0000,1,1
18261,282,230,238,186,188,10.924,-0.305,1.847,0.0472,0.1383,0.1268,0.0000,0.0000,1,1
18282,282,231,238,185,189,12.244,-1.802,2.908,0.0472,0.1413,0.1268,0.0000,0.0000,1,1
18302,283,234,241,185,189,12.542,-1.550,1.397,0.0527,0.1504,0.1389,0.0000,0.0000,1,0
18322,284,237,244,185,191,12.153,1.031,0.473,0.0583,0.1596,0.1509,0.0000,0.0000,1,0
18340,284,239,245,186,190,15.473,0.275,0.901,0.0583,0.1656,0.1550,0.0000,0.0000,1,0
18360,283,242,245,186,189,17.183,-0.557,0.939,0.0527,0.1748,0.1550,0.0000,0.0000,1,0
18381,284,244,246,186,188,16.069,-1.580,0.305,0.0583,0.1808,0.1590,0.0000,0.0000,1,0
18401,283,246,248,185,188,12.015,-1.992,-1.321,0.0527,0.1869,0.1670,0.0000,0.0000,1,0
18422,284,248,250,185,188,11.588,0.695,-3.420,0.0583,0.1930,0.1751,0.0000,0.0000,1,0
18442,283,250,252,185,188,13.244,2.916,-5.382,0.0527,0.1991,0.1832,0.0000,0.0000,1,0
18463,285,252,251,186,190,12.076,3.351,-6.794,0.0639,0.2051,0.1791,0.0000,0.0000,1,0
18480,284,253,251,186,188,10.229,4.702,-6.328,0.0583,0.2082,0.1791,0.0000,0.0000,1,0
18501,284,254,251,185,190,9.672,3.244,-5.740,0.0583,0.2112,0.1791,0.0000,0.0000,1,0
18521,284,257,252,186,188,9.137,3.840,-4.443,0.0583,0.2203,0.1832,0.0000,0.0000,1,0
18543,285,261,254,186,189,12.061,5.962,-4.931,0.0639,0.2325,0.1912,0.0000,0.0000,1,0
18563,286,260,253,185,189,9.214,4.802,-6.130,0.0695,0.2294,0.1872,0.0000,0.0000,1,0
18581,284,262,254,186,187,11.748,5.153,-5.466,0.0583,0.2355,0.1912,0.0000,0.0000,1,0
18601,285,264,255,186,188,10.748,5.008,-3.962,0.0639,0.2416,0.1952,0.0000,0.0000,1,0
18621,281,264,255,186,188,10.763,2.954,-2.397,0.0416,0.2416,0.1952,0.0000,0.0000,1,0
18642,285,265,255,187,188,11.542,1.061,-3.359,0.0639,0.2446,0.1952,0.0000,0.0000,1,0
18662,284,266,255,186,187,11.450,2.870,-5.237,0.0583,0.2477,0.1952,0.0000,0.0000,1,0
18680,284,267,255,186,189,13.718,6.855,-4.298,0.0583,0.2507,0.1952,0.0000,0.0000,1,0
18700,283,268,257,186,189,17.321,7.969,-1.878,0.0527,0.2537,0.2033,0.0000,0.0000,1,0
18721,282,270,258,185,189,17.962,7.817,-1.763,0.0472,0.2598,0.2073,0.0000,0.0000,1,0
18742,284,273,260,185,189,16.534,10.267,-2.855,0.0583,0.2689,0.2154,0.0000,0.0000,1,0
18763,283,274,259,185,188,12.099,13.313,-3.679,0.0527,0.2720,0.2113,0.0000,0.0000,1,0
18780,284,276,260,186,189,9.298,15.137,-2.817,0.0583,0.2780,0.2154,0.0000,0.0000,1,0
18801,281,277,261,186,191,11.710,12.740,-1.672,0.0416,0.2811,0.2194,0.0000,0.0000,1,0
18821,282,280,263,185,189,13.969,9.893,-0.832,0.0472,0.2902,0.2274,0.0000,0.0000,1,0
18842,282,283,264,185,190,14.511,11.977,-1.870,0.0472,0.2993,0.2315,0.0000,0.0000,1,0
18862,283,284,264,186,189,11.710,9.481,-3.832,0.0527,0.3024,0.2315,0.0000,0.0000,1,0
18881,282,286,264,186,188,10.656,9.519,-5.565,0.0472,0.3084,0.2315,0.0000,0.0000,1,0
18901,279,284,263,186,190,11.282,8.412,-5.626,0.0304,0.3024,0.2274,0.0000,0.0000,1,0
18922,280,284,263,186,190,13.458,7.977,-4.122,0.0360,0.3024,0.2274,0.0000,0.0000,1,0
18942,283,285,264,186,189,12.832,3.550,-3.794,0.0527,0.3054,0.2315,0.0000,0.0000,1,0
18962,282,286,264,186,191,8.466,1.649,-4.450,0.0472,0.3084,0.2315,0.0000,0.0000,1,0
18980,282,287,265,185,191,8.244,4.664,-4.580,0.0472,0.3115,0.2355,0.0000,0.0000,1,0
19000,280,289,267,186,190,7.664,3.366,-6.649,0.0360,0.3175,0.2436,0.0000,0.0000,1,0
19022,280,290,269,186,190,6.817,5.160,-9.153,0.0360,0.3206,0.2516,0.0000,0.0000,1,0
19042,282,293,269,186,190,5.511,9.466,-9.824,0.0472,0.3297,0.2516,0.0000,0.0000,1,0
19063,284,296,269,185,191,4.603,3.641,-9.878,0.0583,0.3388,0.2516,0.0000,0.0000,1,0
19080,283,301,273,186,191,6.153,4.244,-10.542,0.0527,0.3540,0.2677,0.0000,0.0000,1,0
19101,282,303,277,187,191,3.687,4.191,-13.267,0.0472,0.3601,0.2838,0.0000,0.0000,1,0
19121,282,306,280,186,193,-0.099,3.878,-14.298,0.0472,0.3692,0.2959,0.0000,0.0000,1,0
19143,280,307,282,187,192,1.817,5.565,-12.802,0.0360,0.3722,0.3040,0.0000,0.0000,1,0
19163,280,306,283,187,193,3.763,6.908,-10.687,0.0360,0.3692,0.3080,0.0000,0.0000,1,0
19181,281,306,282,186,193,1.649,4.580,-10.435,0.0416,0.3692,0.3040,0.0000,0.0000,1,0
19201,279,306,282,187,193,1.153,4.641,-9.504,0.0304,0.3692,0.3040,0.0000,0.0000,1,0
19222,279,304,282,187,192,5.298,4.473,-7.656,0.0304,0.3631,0.3040,0.0000,0.0000,1,0
19242,279,306,282,188,193,6.374,3.519,-6.771,0.0304,0.3692,0.3040,0.0000,0.0000,1,0
19263,278,307,283,187,191,2.947,5.023,-5.580,0.0248,0.3722,0.3080,0.0000,0.0000,1,0
19280,278,308,282,187,193,2.840,5.901,-4.863,0.0248,0.3753,0.3040,0.0000,0.0000,1,0
19301,278,307,283,188,193,4.542,6.504,-4.893,0.0248,0.3722,0.3080,0.0000,0.0000,1,0
19322,278,308,282,187,191,6.603,5.092,-4.763,0.0248,0.3753,0.3040,0.0000,0.0000,1,0
19342,278,308,282,187,192,5.962,4.397,-4.542,0.0248,0.3753,0.3040,0.0000,0.0000,1,0
19363,278,308,281,187,191,2.641,3.885,-4.466,0.0248,0.3753,0.2999,0.0000,0.0000,1,0
19380,279,309,282,187,192,2.427,2.893,-3.557,0.0304,0.3783,0.3040,0.0000,0.0000,1,0
19401,279,307,283,187,192,4.634,4.618,-1.641,0.0304,0.3722,0.3080,0.0000,0.0000,1,0
19421,279,310,282,187,193,7.191,0.435,1.176,0.0304,0.3813,0.3040,0.0000,0.0000,1,0
19443,278,308,282,187,193,8.779,-0.366,3.206,0.0248,0.3753,0.3040,0.0000,0.0000,1,0
19463,277,306,281,187,193,9.153,-0.916,2.649,0.0193,0.3692,0.2999,0.0000,0.0000,1,0
19481,279,308,282,187,192,10.450,0.840,2.069,0.0304,0.3753,0.3040,0.0000,0.0000,1,0
19501,277,308,282,186,192,8.740,1.504,1.580,0.0193,0.3753,0.3040,0.0000,0.0000,1,0
19522,279,306,281,187,193,7.954,1.649,0.931,0.0304,0.3692,0.2999,0.0000,0.0000,1,0
19542,278,306,282,187,192,8.802,3.985,0.443,0.0248,0.3692,0.3040,0.0000,0.0000,1,0
19563,278,306,282,186,192,6.366,6.260,-0.748,0.0248,0.3692,0.3040,0.0000,0.0000,1,0
19580,277,302,280,186,192,4.679,5.282,-0.809,0.0193,0.3570,0.2959,0.0000,0.0000,1,0
19601,275,299,278,187,192,4.206,5.290,0.122,0.0081,0.3479,0.2879,0.0000,0.0000,1,0
19622,276,298,278,186,192,7.069,4.847,1.565,0.0137,0.3449,0.2879,0.0000,0.0000,1,0
19642,278,296,278,187,193,8.008,3.908,4.282,0.0248,0.3388,0.2879,0.0000,0.0000,1,0
19663,276,293,278,188,193,4.969,4.191,7.305,0.0137,0.3297,0.2879,0.0000,0.0000,1,0
19680,275,291,280,188,192,2.191,6.084,10.618,0.0081,0.3236,0.2959,0.0000,0.0000,1,0
19701,275,290,283,188,192,-4.389,5.931,14.084,0.0081,0.3206,0.3080,0.0000,0.0000,1,0
19722,275,288,291,189,193,-15.542,9.878,16.840,0.0081,0.3145,0.3402,0.0000,0.0000,1,0
19743,275,290,299,190,194,-16.618,8.794,19.649,0.0081,0.3206,0.3724,0.0000,0.0059,1,0
19760,275,298,307,191,195,-19.870,6.122,21.153,0.0081,0.3449,0.4046,0.0000,0.0119,1,0
19781,277,311,317,194,197,-27.893,-4.534,24.298,0.0193,0.3844,0.4449,0.0000,0.0238,1,0
19801,277,331,330,198,200,-19.542,-13.435,25.389,0.0193,0.4451,0.4973,0.0021,0.0417,1,0
19822,279,350,343,203,203,3.092,-12.511,22.122,0.0304,0.5029,0.5496,0.0302,0.0595,1,0
19843,282,371,356,209,207,25.328,-18.076,19.412,0.0472,0.5667,0.6020,0.0640,0.0833,1,0
19861,285,388,368,216,212,41.863,-27.947,17.969,0.0639,0.6183,0.6503,0.1034,0.1131,1,0
19881,286,401,385,226,219,42.977,-31.939,16.053,0.0695,0.6578,0.7188,0.1596,0.1548,1,0
19901,289,408,402,238,227,36.137,-36.534,13.183,0.0862,0.6791,0.7872,0.2271,0.2025,1,0
19922,292,414,415,253,236,27.931,-34.191,12.344,0.1029,0.6973,0.8396,0.3115,0.2561,1,0
19942,297,424,425,267,245,21.725,-31.450,11.344,0.1308,0.7277,0.8798,0.3903,0.3097,1,0
19960,300,432,430,278,253,21.305,-27.115,9.626,0.1475,0.7520,0.9000,0.4522,0.3573,1,0
19981,303,440,434,289,257,16.260,-24.260,8.214,0.1643,0.7763,0.9161,0.5141,0.3811,1,0
20002,308,449,436,297,263,12.023,-18.107,6.542,0.1922,0.8036,0.9241,0.5591,0.4168,1,0
20022,311,457,438,303,265,11.534,-14.954,5.557,0.2089,0.8280,0.9322,0.5929,0.4288,1,0
20041,309,459,439,309,270,11.733,-14.000,6.214,0.1977,0.8340,0.9362,0.6266,0.4585,1,0
20061,312,465,440,314,273,16.855,-13.458,4.885,0.2145,0.8523,0.9402,0.6548,0.4764,1,0
20082,314,470,440,318,276,12.656,-6.802,3.336,0.2256,0.8674,0.9402,0.6773,0.4943,1,0
20102,317,472,440,320,278,9.702,-1.748,1.786,0.2424,0.8735,0.9402,0.6885,0.5062,1,0
20121,317,472,440,323,280,6.649,-3.466,1.443,0.2424,0.8735,0.9402,0.7054,0.5181,1,0
20141,319,472,440,325,280,7.931,-4.847,1.809,0.2535,0.8735,0.9402,0.7166,0.5181,1,0
20162,319,472,439,328,281,9.542,-5.412,0.473,0.2535,0.8735,0.9362,0.7335,0.5240,1,0
20183,320,474,438,328,280,10.008,-4.573,-0.687,0.2591,0.8796,0.9322,0.7335,0.5181,1,0
20201,319,476,439,329,277,9.328,-6.855,-1.122,0.2535,0.8857,0.9362,0.7392,0.5002,1,0
20221,320,478,441,332,277,7.672,-11.481,-1.008,0.2591,0.8918,0.9443,0.7560,0.5002,1,0
20241,323,482,441,332,276,9.267,-10.023,-2.702,0.2758,0.9039,0.9443,0.7560,0.4943,1,0
20263,322,481,444,336,277,13.992,-9.466,-1.672,0.2702,0.9009,0.9563,0.7785,0.5002,1,0
20280,322,482,446,336,278,8.275,-5.885,-1.763,0.2702,0.9039,0.9644,0.7785,0.5062,1,0
20301,322,484,447,338,277,11.237,-5.740,-0.443,0.2702,0.9100,0.9684,0.7898,0.5002,1,0
20322,323,485,448,341,276,10.443,-7.466,-0.351,0.2758,0.9130,0.9725,0.8067,0.4943,1,0
20343,325,488,448,342,274,12.305,-7.809,-0.015,0.2870,0.9221,0.9725,0.8123,0.4824,1,0
20360,327,492,450,344,273,11.237,-5.069,-0.267,0.2981,0.9343,0.9805,0.8236,0.4764,1,0
20381,326,492,450,343,271,10.420,-3.191,-0.939,0.2925,0.9343,0.9805,0.8179,0.4645,1,0
20402,327,495,450,345,268,9.374,0.656,-0.603,0.2981,0.9434,0.9805,0.8292,0.4466,1,0
20423,325,494,450,344,268,7.550,1.672,0.366,0.2870,0.9404,0.9805,0.8236,0.4466,1,0
20440,324,494,448,343,266,7.664,2.496,0.366,0.2814,0.9404,0.9725,0.8179,0.4347,1,0
20461,323,491,446,342,264,7.611,3.389,1.206,0.2758,0.9312,0.9644,0.8123,0.4228,1,0
20482,322,489,446,341,263,7.473,2.855,2.763,0.2702,0.9252,0.9644,0.8067,0.4168,1,0
20503,322,489,447,340,261,8.901,2.863,2.573,0.2702,0.9252,0.9684,0.8010,0.4049,1,0
20520,323,487,446,340,261,10.527,3.702,1.405,0.2758,0.9191,0.9644,0.8010,0.4049,1,0
20540,322,486,444,338,260,9.557,5.359,-0.420,0.2702,0.9161,0.9563,0.7898,0.3990,1,0
20562,320,482,441,334,258,4.985,7.275,-1.565,0.2591,0.9039,0.9443,0.7673,0.3871,1,0
20582,319,478,440,332,254,-0.405,11.992,-1.198,0.2535,0.8918,0.9402,0.7560,0.3632,1,0
20600,320,477,440,330,253,2.198,11.618,0.916,0.2591,0.8887,0.9402,0.7448,0.3573,1,0
20620,318,470,438,326,251,5.046,11.489,2.496,0.2479,0.8674,0.9322,0.7223,0.3454,1,0
20642,317,466,438,322,249,6.664,12.840,2.847,0.2424,0.8553,0.9322,0.6998,0.3335,1,0
20662,315,463,438,320,248,5.817,14.183,4.519,0.2312,0.8462,0.9322,0.6885,0.3275,1,0
20683,314,462,437,318,246,10.374,10.573,8.519,0.2256,0.8431,0.9282,0.6773,0.3156,1,0
20700,314,459,435,314,245,14.733,5.092,8.824,0.2256,0.8340,0.9201,0.6548,0.3097,1,0
20722,313,457,434,312,243,15.122,5.031,8.336,0.2200,0.8280,0.9161,0.6435,0.2977,1,0
20742,312,455,433,309,243,12.412,6.046,10.145,0.2145,0.8219,0.9120,0.6266,0.2977,1,0
20763,311,452,432,306,241,12.168,5.817,11.656,0.2089,0.8128,0.9080,0.6097,0.2858,1,0
20780,312,451,431,305,240,13.519,3.008,10.397,0.2145,0.8097,0.9040,0.6041,0.2799,1,0
20802,311,451,430,303,240,17.435,3.061,10.168,0.2089,0.8097,0.9000,0.5929,0.2799,1,0
20822,310,449,429,301,238,17.244,0.634,12.634,0.2033,0.8036,0.8959,0.5816,0.2680,1,0
20843,311,447,429,299,237,16.527,0.191,13.023,0.2089,0.7976,0.8959,0.5704,0.2620,1,0
20860,311,445,427,298,238,14.000,0.275,12.534,0.2089,0.7915,0.8879,0.5647,0.2680,1,0
20881,309,445,425,297,238,14.450,2.221,11.855,0.1977,0.7915,0.8798,0.5591,0.2680,1,0
20902,310,443,424,296,238,13.878,3.885,10.840,0.2033,0.7854,0.8758,0.5535,0.2680,1,0
20922,311,444,424,296,239,13.954,5.321,10.107,0.2089,0.7885,0.8758,0.5535,0.2739,1,0
20940,309,444,423,294,238,7.427,4.908,9.557,0.1977,0.7885,0.8718,0.5422,0.2680,1,0
20961,310,443,422,294,238,8.115,6.450,8.847,0.2033,0.7854,0.8678,0.5422,0.2680,1,0
20982,308,441,420,293,238,8.977,6.427,6.626,0.1922,0.7793,0.8597,0.5366,0.2680,1,0
21002,308,440,420,293,238,9.237,7.366,5.015,0.1922,0.7763,0.8597,0.5366,0.2680,1,0
21023,310,441,420,294,238,5.802,8.573,4.580,0.2033,0.7793,0.8597,0.5422,0.2680,1,0
21040,309,439,420,292,238,4.458,7.031,3.962,0.1977,0.7733,0.8597,0.5310,0.2680,1,0
21062,308,437,418,290,239,5.000,6.382,2.382,0.1922,0.7672,0.8516,0.5197,0.2739,1,0
21082,308,434,417,289,239,6.412,6.336,0.962,0.1922,0.7581,0.8476,0.5141,0.2739,1,0
21103,309,436,417,289,240,6.298,8.115,1.435,0.1977,0.7642,0.8476,0.5141,0.2799,1,0
21120,310,437,417,288,239,7.481,7.099,2.939,0.2033,0.7672,0.8476,0.5085,0.2739,1,0
21142,310,438,416,288,239,8.603,5.412,2.763,0.2033,0.7702,0.8436,0.5085,0.2739,1,0
21162,308,436,414,288,241,7.519,3.878,1.435,0.1922,0.7642,0.8355,0.5085,0.2858,1,0
21183,308,436,415,288,241,8.687,4.763,2.542,0.1922,0.7642,0.8396,0.5085,0.2858,1,0
21200,309,438,416,288,241,9.969,4.031,3.450,0.1977,0.7702,0.8436,0.5085,0.2858,1,0
21221,307,437,414,288,243,10.084,3.336,3.618,0.1866,0.7672,0.8355,0.5085,0.2977,1,0
21242,308,436,414,288,242,8.641,1.885,2.916,0.1922,0.7642,0.8355,0.5085,0.2918,1,0
21262,310,437,413,290,243,8.191,2.046,2.924,0.2033,0.7672,0.8315,0.5197,0.2977,1,0
21280,309,436,412,289,244,10.130,0.313,3.267,0.1977,0.7642,0.8275,0.5141,0.3037,1,0
21301,307,433,411,289,245,11.450,-0.443,3.397,0.1866,0.7550,0.8235,0.5141,0.3097,1,0
21322,308,433,411,289,246,11.725,0.015,4.618,0.1922,0.7550,0.8235,0.5141,0.3156,1,0
21342,308,434,410,288,246,11.733,0.679,5.992,0.1922,0.7581,0.8194,0.5085,0.3156,1,0
21360,308,434,410,290,247,12.137,0.611,5.931,0.1922,0.7581,0.8194,0.5197,0.3216,1,0
21381,309,433,410,289,246,10.969,0.756,5.420,0.1977,0.7550,0.8194,0.5141,0.3156,1,0
21402,306,433,409,289,248,9.344,1.328,5.550,0.1810,0.7550,0.8154,0.5141,0.3275,1,0
21422,307,434,410,291,247,9.611,2.061,5.695,0.1866,0.7581,0.8194,0.5253,0.3216,1,0
21443,306,433,410,290,247,10.046,1.756,6.122,0.1810,0.7550,0.8194,0.5197,0.3216,1,0
21461,307,431,408,290,249,10.511,1.817,5.962,0.1866,0.7490,0.8114,0.5197,0.3335,1,0
21482,306,432,408,289,247,8.992,0.939,6.023,0.1810,0.7520,0.8114,0.5141,0.3216,1,0
21502,305,431,409,290,247,9.145,1.557,6.542,0.1754,0.7490,0.8154,0.5197,0.3216,1,0
21522,307,433,408,289,247,9.840,0.901,7.893,0.1866,0.7550,0.8114,0.5141,0.3216,1,0
21540,307,432,407,288,246,11.763,0.885,8.237,0.1866,0.7520,0.8073,0.5085,0.3156,1,0
21561,308,432,407,289,247,10.634,1.275,9.191,0.1922,0.7520,0.8073,0.5141,0.3216,1,0
21582,306,430,408,289,248,10.344,0.710,10.511,0.1810,0.7459,0.8114,0.5141,0.3275,1,0
21602,305,427,409,289,248,15.756,-1.847,11.282,0.1754,0.7368,0.8154,0.5141,0.3275,1,0
21620,306,426,408,290,249,16.107,-2.076,12.115,0.1810,0.7338,0.8114,0.5197,0.3335,1,0
21641,307,425,407,289,248,14.977,-0.107,12.489,0.1866,0.7307,0.8073,0.5141,0.3275,1,0
21662,306,424,408,290,248,12.374,-1.176,13.183,0.1810,0.7277,0.8114,0.5197,0.3275,1,0
21682,308,423,409,287,248,16.107,-1.794,14.107,0.1922,0.7247,0.8154,0.5028,0.3275,1,1
21700,307,421,410,288,248,17.557,-2.565,14.885,0.1866,0.7186,0.8194,0.5085,0.3275,1,1
21721,308,418,410,288,248,18.443,-1.550,16.565,0.1922,0.7095,0.8194,0.5085,0.3275,1,1
21742,307,417,411,290,249,14.847,0.863,19.084,0.1866,0.7064,0.8235,0.5197,0.3335,1,1
21762,306,416,411,288,249,11.443,-1.122,20.847,0.1810,0.7034,0.8235,0.5085,0.3335,1,1
21783,307,414,411,285,250,8.550,-5.473,22.756,0.1866,0.6973,0.8235,0.4916,0.3394,1,1
21801,306,413,412,284,248,12.427,-6.885,25.130,0.1810,0.6943,0.8275,0.4860,0.3275,1,1
21821,311,411,410,284,249,15.267,-12.344,25.824,0.2089,0.6882,0.8194,0.4860,0.3335,1,1
21842,311,410,409,283,249,19.840,-18.084,25.641,0.2089,0.6852,0.8154,0.4803,0.3335,1,1
21862,314,409,409,283,249,22.466,-18.908,27.366,0.2256,0.6821,0.8154,0.4803,0.3335,1,1
21881,316,407,406,281,249,23.008,-22.519,27.977,0.2368,0.6760,0.8033,0.4691,0.3335,1,1
21901,318,406,404,279,249,22.252,-26.870,27.099,0.2479,0.6730,0.7953,0.4578,0.3335,1,1
21922,320,409,402,278,248,33.809,-23.885,26.931,0.2591,0.6821,0.7872,0.4522,0.3275,1,1
21942,322,414,401,278,247,44.489,-22.427,26.290,0.2702,0.6973,0.7832,0.4522,0.3216,1,1
21961,321,419,400,276,244,48.542,-17.595,27.863,0.2647,0.7125,0.7792,0.4409,0.3037,1,1
21981,329,424,400,275,242,56.221,-7.115,32.076,0.3093,0.7277,0.7792,0.4353,0.2918,1,1
22002,342,429,401,273,238,51.756,-2.908,33.084,0.3818,0.7429,0.7832,0.4241,0.2680,1,1
22022,351,430,398,271,237,44.084,-0.947,28.374,0.4320,0.7459,0.7711,0.4128,0.2620,1,1
22041,361,431,397,269,234,47.076,17.191,28.687,0.4877,0.7490,0.7671,0.4016,0.2441,1,1
22061,372,427,392,267,232,44.664,26.634,17.260,0.5491,0.7368,0.7469,0.3903,0.2322,1,1
22082,377,429,384,265,228,52.168,42.015,19.160,0.5770,0.7429,0.7147,0.3791,0.2084,1,1
22102,390,432,370,260,225,68.824,62.947,19.405,0.6495,0.7520,0.6583,0.3509,0.1905,1,1
22124,413,429,350,256,219,60.275,47.344,16.489,0.7778,0.7429,0.5778,0.3284,0.1548,1,1
22141,427,422,333,252,215,43.924,38.901,15.588,0.8558,0.7216,0.5093,0.3059,0.1310,1,1
22161,446,416,321,249,211,43.527,34.992,16.947,0.9618,0.7034,0.4610,0.2890,0.1072,1,1
22182,462,417,311,246,208,54.527,41.489,12.496,1.0000,0.7064,0.4207,0.2722,0.0893,1,1
22202,470,414,301,243,206,62.359,34.466,8.298,1.0000,0.6973,0.3805,0.2553,0.0774,1,1
22220,478,410,292,242,202,50.115,38.321,8.840,1.0000,0.6852,0.3442,0.2496,0.0536,1,1
22241,483,407,282,238,200,38.969,23.481,2.107,1.0000,0.6760,0.3040,0.2271,0.0417,1,1
22262,490,407,273,233,197,39.885,24.786,1.344,1.0000,0.6760,0.2677,0.1990,0.0238,1,1
22282,492,405,264,230,195,33.153,30.229,-3.924,1.0000,0.6700,0.2315,0.1821,0.0119,1,1
22303,492,404,258,229,194,22.794,19.672,-5.305,1.0000,0.6669,0.2073,0.1765,0.0059,1,1
22320,491,402,255,226,194,16.405,20.214,-6.794,1.0000,0.6609,0.1952,0.1596,0.0059,1,1
22341,488,400,251,224,193,19.809,23.611,-9.519,1.0000,0.6548,0.1791,0.1484,0.0000,1,1
22362,495,399,251,223,192,27.992,16.885,-6.244,1.0000,0.6517,0.1791,0.1427,0.0000,1,1
22383,494,400,251,222,191,27.664,13.779,-6.435,1.0000,0.6548,0.1791,0.1371,0.0000,1,1
22403,498,399,251,222,191,7.672,10.015,-8.748,1.0000,0.6517,0.1791,0.1371,0.0000,1,1
22421,495,399,253,222,191,6.710,8.473,-8.191,1.0000,0.6517,0.1872,0.1371,0.0000,1,1
22440,499,399,258,221,190,13.389,8.466,-7.641,1.0000,0.6517,0.2073,0.1315,0.0000,1,1
22461,499,397,262,221,190,18.809,8.000,-8.000,1.0000,0.6457,0.2234,0.1315,0.0000,1,1
22482,501,399,265,219,190,15.649,9.527,-8.786,1.0000,0.6517,0.2355,0.1202,0.0000,1,1
22502,500,398,268,220,189,9.130,0.168,-9.260,1.0000,0.6487,0.2476,0.1259,0.0000,1,1
22523,500,395,276,219,189,0.748,1.053,-6.397,1.0000,0.6396,0.2798,0.1202,0.0000,1,1
22540,505,395,282,220,189,9.107,3.321,-4.405,1.0000,0.6396,0.3040,0.1259,0.0000,1,1
22561,505,393,287,219,189,17.183,5.947,-5.595,1.0000,0.6335,0.3241,0.1202,0.0000,1,1
22582,506,393,287,218,189,12.496,3.076,-6.595,1.0000,0.6335,0.3241,0.1146,0.0000,1,1
22603,509,392,289,217,189,8.763,-3.176,-3.527,1.0000,0.6305,0.3322,0.1090,0.0000,1,1
22620,510,393,297,217,188,6.427,0.405,-0.878,1.0000,0.6335,0.3644,0.1090,0.0000,1,1
22641,512,394,305,218,188,8.809,2.687,-1.969,1.0000,0.6365,0.3966,0.1146,0.0000,1,1
22661,513,396,307,217,188,9.924,1.473,-3.389,1.0000,0.6426,0.4046,0.1090,0.0000,1,1
22682,511,395,309,216,188,4.527,-4.580,-2.924,1.0000,0.6396,0.4127,0.1034,0.0000,1,1
22702,512,397,316,217,188,5.214,1.206,-1.924,1.0000,0.6457,0.4409,0.1090,0.0000,1,1
22720,513,397,318,216,188,12.107,3.595,-1.931,1.0000,0.6457,0.4489,0.1034,0.0000,1,1
22741,512,395,315,216,188,13.542,2.573,-2.916,1.0000,0.6396,0.4369,0.1034,0.0000,1,1
22762,510,396,312,216,188,6.573,-1.893,-3.878,1.0000,0.6426,0.4248,0.1034,0.0000,1,1
22782,511,397,312,216,188,1.405,0.702,-4.130,1.0000,0.6457,0.4248,0.1034,0.0000,1,1
22802,513,397,312,214,188,7.183,9.298,-2.824,1.0000,0.6457,0.4248,0.0921,0.0000,1,1
22820,512,396,308,213,188,12.901,7.481,-2.786,1.0000,0.6426,0.4087,0.0865,0.0000,1,1
22840,515,394,305,212,187,6.084,2.305,-2.038,1.0000,0.6365,0.3966,0.0809,0.0000,1,1
22862,516,394,305,213,187,4.443,0.099,-0.802,1.0000,0.6365,0.3966,0.0865,0.0000,1,1
22882,513,396,304,213,188,7.458,3.313,-3.611,1.0000,0.6426,0.3926,0.0865,0.0000,1,1
22903,512,395,303,212,188,5.817,4.710,-4.618,1.0000,0.6396,0.3885,0.0809,0.0000,1,1
22920,510,393,300,211,188,5.031,0.954,-4.565,1.0000,0.6335,0.3764,0.0752,0.0000,1,1
22941,513,395,300,210,187,0.183,0.145,-3.977,1.0000,0.6396,0.3764,0.0696,0.0000,1,1
22961,511,394,299,210,188,4.153,3.588,-4.046,1.0000,0.6365,0.3724,0.0696,0.0000,1,1
22982,507,393,299,210,187,8.130,0.809,-3.817,1.0000,0.6335,0.3724,0.0696,0.0000,1,1
23003,508,393,298,210,187,5.389,-1.511,-2.473,1.0000,0.6335,0.3684,0.0696,0.0000,1,1
23021,512,394,295,209,187,4.198,-2.221,-1.985,1.0000,0.6365,0.3563,0.0640,0.0000,1,1
23041,509,393,296,210,186,5.061,1.931,-1.489,1.0000,0.6335,0.3603,0.0696,0.0000,1,1
23062,506,392,295,210,187,11.962,3.595,-1.824,1.0000,0.6305,0.3563,0.0696,0.0000,1,1
23082,512,392,295,210,187,8.145,1.382,-1.718,1.0000,0.6305,0.3563,0.0696,0.0000,1,1
23103,504,390,294,208,188,7.756,-2.046,-0.893,1.0000,0.6244,0.3523,0.0583,0.0000,1,1
23120,505,390,294,208,187,7.450,-2.794,-2.076,1.0000,0.6244,0.3523,0.0583,0.0000,1,1
23140,507,390,293,207,187,7.672,-2.351,-1.130,1.0000,0.6244,0.3483,0.0527,0.0000,1,1
23162,507,391,294,209,186,7.939,-1.901,-1.573,1.0000,0.6274,0.3523,0.0640,0.0000,1,1
23182,511,389,292,208,187,7.794,-1.779,-1.260,1.0000,0.6214,0.3442,0.0583,0.0000,1,1
23203,508,389,291,207,187,9.626,-3.725,-0.802,1.0000,0.6214,0.3402,0.0527,0.0000,1,1
23220,508,389,293,207,186,10.237,-4.763,0.229,1.0000,0.6214,0.3483,0.0527,0.0000,1,1
23241,505,389,293,208,186,10.626,-8.198,-0.687,1.0000,0.6214,0.3483,0.0583,0.0000,1,1
23261,502,389,293,208,185,11.282,-4.634,-1.206,1.0000,0.6214,0.3483,0.0583,0.0000,1,1
23282,503,388,293,207,186,10.023,-2.473,-1.847,1.0000,0.6183,0.3483,0.0527,0.0000,1,1
23303,501,387,292,207,186,10.687,-4.527,-2.321,1.0000,0.6153,0.3442,0.0527,0.0000,1,1
23321,503,388,291,207,187,14.015,-6.519,-1.305,1.0000,0.6183,0.3402,0.0527,0.0000,1,1
23341,501,389,295,206,186,16.771,-5.313,-1.000,1.0000,0.6214,0.3563,0.0471,0.0000,1,1
23362,499,390,296,206,185,8.901,-1.893,-1.427,1.0000,0.6244,0.3603,0.0471,0.0000,1,1
23382,500,389,295,207,184,5.275,-1.595,-1.519,1.0000,0.6214,0.3563,0.0527,0.0000,1,1
23403,498,391,292,207,186,10.550,-4.534,-0.580,1.0000,0.6274,0.3442,0.0527,0.0000,1,1
23420,499,391,290,207,185,10.855,-4.160,-0.481,1.0000,0.6274,0.3362,0.0527,0.0000,1,1
23441,496,390,287,207,185,8.695,-0.634,-2.901,1.0000,0.6244,0.3241,0.0527,0.0000,1,1
23462,498,391,284,208,185,9.878,-2.244,-3.183,1.0000,0.6274,0.3120,0.0583,0.0000,1,1
23482,499,392,281,206,185,4.664,-5.015,-2.374,1.0000,0.6305,0.2999,0.0471,0.0000,1,1
23503,497,392,276,207,185,2.282,-5.015,-2.992,1.0000,0.6305,0.2798,0.0527,0.0000,1,1
23520,496,390,273,207,185,4.832,-0.443,-3.870,1.0000,0.6244,0.2677,0.0527,0.0000,1,1
23541,499,390,269,206,184,9.237,3.603,-5.053,1.0000,0.6244,0.2516,0.0471,0.0000,1,1
23561,497,390,266,206,184,3.901,4.527,-3.794,1.0000,0.6244,0.2395,0.0471,0.0000,1,1
23583,496,390,263,206,184,2.977,2.351,-2.626,1.0000,0.6244,0.2274,0.0471,0.0000,1,1
23603,493,390,262,207,184,3.244,4.565,-2.176,1.0000,0.6244,0.2234,0.0527,0.0000,1,1
23621,497,388,260,207,184,7.344,8.420,-2.489,1.0000,0.6183,0.2154,0.0527,0.0000,1,1
23641,492,385,259,207,184,8.649,6.756,-3.466,1.0000,0.6092,0.2113,0.0527,0.0000,1,1
23662,493,383,257,207,183,4.992,2.763,-2.435,1.0000,0.6031,0.2033,0.0527,0.0000,1,1
23682,492,385,255,206,184,4.748,2.679,-1.725,1.0000,0.6092,0.1952,0.0471,0.0000,1,1
23703,492,385,254,206,183,7.023,2.328,-1.160,1.0000,0.6092,0.1912,0.0471,0.0000,1,1
23720,494,382,253,206,183,5.443,0.878,-1.008,1.0000,0.6001,0.1872,0.0471,0.0000,1,1
23740,496,383,251,207,183,4.794,-0.893,-1.397,1.0000,0.6031,0.1791,0.0527,0.0000,1,1
23762,495,382,251,206,183,5.519,1.573,-1.557,1.0000,0.6001,0.1791,0.0471,0.0000,1,1
23782,496,381,250,206,182,9.450,6.336,-1.969,1.0000,0.5971,0.1751,0.0471,0.0000,1,1
23803,496,381,250,206,183,7.137,4.198,-1.099,1.0000,0.5971,0.1751,0.0471,0.0000,1,1
23820,497,380,249,205,183,6.023,2.794,-0.550,1.0000,0.5940,0.1711,0.0415,0.0000,1,1
23841,494,380,249,205,183,7.130,0.344,0.359,1.0000,0.5940,0.1711,0.0415,0.0000,1,1
23861,493,378,246,206,182,7.740,1.290,0.321,1.0000,0.5879,0.1590,0.0471,0.0000,1,1
23882,496,379,247,206,183,6.573,3.336,-1.405,1.0000,0.5910,0.1630,0.0471,0.0000,1,1
23902,495,380,247,205,183,4.611,0.809,-0.992,1.0000,0.5940,0.1630,0.0415,0.0000,1,1
23923,496,381,246,204,182,5.832,-0.260,0.031,1.0000,0.5971,0.1590,0.0358,0.0000,1,1
23940,496,379,244,205,182,8.122,-1.496,0.893,1.0000,0.5910,0.1509,0.0415,0.0000,1,1
23961,496,379,244,204,181,9.427,1.931,-0.053,1.0000,0.5910,0.1509,0.0358,0.0000,1,1
23981,495,380,246,204,182,7.031,2.214,-0.893,1.0000,0.5940,0.1590,0.0358,0.0000,1,1
24002,494,379,244,205,183,6.275,1.305,-0.435,1.0000,0.5910,0.1509,0.0415,0.0000,1,1
24022,493,377,244,204,182,5.634,0.191,0.008,1.0000,0.5849,0.1509,0.0358,0.0000,1,1
24043,495,376,244,204,182,6.122,0.565,0.084,1.0000,0.5819,0.1509,0.0358,0.0000,1,1
24063,492,377,243,204,182,6.573,-1.115,0.794,1.0000,0.5849,0.1469,0.0358,0.0000,1,1
24080,494,377,243,204,182,5.725,-1.221,0.069,1.0000,0.5849,0.1469,0.0358,0.0000,1,1
24101,497,378,242,204,183,1.992,-3.924,-0.153,1.0000,0.5879,0.1429,0.0358,0.0000,1,1
24121,496,380,241,204,182,-4.969,-8.786,-0.924,1.0000,0.5940,0.1389,0.0358,0.0000,1,1
24142,495,379,239,204,181,-18.137,-17.802,-3.053,1.0000,0.5910,0.1308,0.0358,0.0000,1,1
24162,489,381,242,203,182,-34.382,-26.427,-3.847,1.0000,0.5971,0.1429,0.0302,0.0000,1,1
24180,481,381,244,203,182,-40.992,-32.580,0.069,1.0000,0.5971,0.1509,0.0302,0.0000,1,1
24200,479,382,246,204,181,-28.740,-34.924,1.534,1.0000,0.6001,0.1590,0.0358,0.0000,1,1
24222,471,385,248,205,181,-19.870,-40.466,3.519,1.0000,0.6092,0.1670,0.0415,0.0000,1,1
24242,461,389,254,205,182,-13.275,-46.443,5.229,1.0000,0.6214,0.1912,0.0415,0.0000,1,1
24263,445,396,261,204,184,-12.015,-58.603,6.718,0.9562,0.6426,0.2194,0.0358,0.0000,1,1
24280,428,407,273,205,186,-15.916,-59.595,5.817,0.8614,0.6760,0.2677,0.0415,0.0000,1,1
24301,412,422,287,209,189,-16.282,-46.725,4.687,0.7722,0.7216,0.3241,0.0640,0.0000,1,1
24321,399,433,306,212,193,-14.802,-36.031,4.435,0.6997,0.7550,0.4006,0.0809,0.0000,1,1
24342,391,444,324,219,198,-8.710,-38.565,1.969,0.6551,0.7885,0.4731,0.1202,0.0297,1,1
24363,382,452,339,222,201,-13.000,-41.305,-0.069,0.6049,0.8128,0.5335,0.1371,0.0476,1,1
24380,377,458,345,223,204,-21.489,-36.160,-2.786,0.5770,0.8310,0.5577,0.1427,0.0655,1,1
24401,374,457,351,224,206,-18.771,-23.710,-2.977,0.5602,0.8280,0.5818,0.1484,0.0774,1,1
24421,371,452,353,227,206,-16.748,-13.740,-4.878,0.5435,0.8128,0.5899,0.1653,0.0774,1,1
24442,371,441,353,229,209,-11.863,-14.145,-9.573,0.5435,0.7793,0.5899,0.1765,0.0953,1,1
24463,367,428,351,228,211,-5.756,-11.244,-9.214,0.5212,0.7398,0.5818,0.1709,0.1072,1,1
24481,364,418,348,228,213,-3.733,-9.802,-7.947,0.5045,0.7095,0.5697,0.1709,0.1191,1,1
24501,363,410,348,229,212,-10.901,-5.336,-7.405,0.4989,0.6852,0.5697,0.1765,0.1131,1,1
24522,362,404,348,230,214,-16.145,-4.450,-8.786,0.4933,0.6669,0.5697,0.1821,0.1250,1,1
24542,360,397,349,231,215,-19.748,-6.046,-8.076,0.4822,0.6457,0.5738,0.1878,0.1310,1,1
24561,361,392,349,231,216,-18.496,-6.809,-6.634,0.4877,0.6305,0.5738,0.1878,0.1369,1,1
24581,359,385,352,232,219,-13.565,-8.069,-8.198,0.4766,0.6092,0.5859,0.1934,0.1548,1,1
24602,358,381,361,234,221,-10.885,-12.107,-9.962,0.4710,0.5971,0.6221,0.2046,0.1667,1,1
24622,355,375,369,236,225,-11.336,-20.305,-10.580,0.4543,0.5788,0.6543,0.2159,0.1905,1,1
24643,357,374,379,238,232,-13.779,-25.603,-11.763,0.4654,0.5758,0.6946,0.2271,0.2322,1,1
24661,355,374,389,243,237,-11.855,-26.229,-11.580,0.4543,0.5758,0.7349,0.2553,0.2620,1,1
24682,357,377,398,250,244,-12.588,-22.504,-11.924,0.4654,0.5849,0.7711,0.2947,0.3037,1,1
24702,351,377,407,258,251,-10.298,-28.847,-13.183,0.4320,0.5849,0.8073,0.3397,0.3454,1,1
24722,353,382,417,264,253,-6.885,-28.260,-12.878,0.4431,0.6001,0.8476,0.3734,0.3573,1,1
24741,350,391,424,271,257,-6.763,-19.405,-11.511,0.4264,0.6274,0.8758,0.4128,0.3811,1,1
24761,353,399,428,279,260,-2.992,-5.000,-12.092,0.4431,0.6517,0.8919,0.4578,0.3990,1,1
24782,349,403,431,282,263,4.817,1.366,-11.405,0.4208,0.6639,0.9040,0.4747,0.4168,1,1
24803,349,403,432,284,262,-8.290,5.000,-13.939,0.4208,0.6639,0.9080,0.4860,0.4109,1,1
24821,347,404,432,283,262,-4.260,5.130,-14.840,0.4097,0.6669,0.9080,0.4803,0.4109,1,1
24841,346,407,434,286,262,1.656,2.733,-15.740,0.4041,0.6760,0.9161,0.4972,0.4109,1,1
24862,346,410,434,288,262,4.466,0.969,-16.557,0.4041,0.6852,0.9161,0.5085,0.4109,1,1
24883,347,414,433,289,261,5.985,5.176,-13.954,0.4097,0.6973,0.9120,0.5141,0.4049,1,1
24901,345,415,433,291,261,6.542,4.244,-12.405,0.3985,0.7003,0.9120,0.5253,0.4049,1,1
24921,343,415,434,292,262,5.344,0.290,-10.954,0.3874,0.7003,0.9161,0.5310,0.4109,1,1
24942,343,416,433,294,262,7.267,0.947,-9.229,0.3874,0.7034,0.9120,0.5422,0.4109,1,1
24963,341,416,430,294,262,8.153,0.389,-8.046,0.3762,0.7034,0.9000,0.5422,0.4109,1,1
24981,341,412,427,292,261,5.076,0.702,-5.000,0.3762,0.6912,0.8879,0.5310,0.4049,1,1
25001,343,409,423,292,260,7.084,4.641,-3.603,0.3874,0.6821,0.8718,0.5310,0.3990,1,1
25023,340,404,418,292,259,7.855,1.878,-3.099,0.3706,0.6669,0.8516,0.5310,0.3930,1,1
25043,337,399,415,291,258,8.824,-0.473,-2.908,0.3539,0.6517,0.8396,0.5253,0.3871,1,1
25060,340,397,412,290,257,9.939,-0.725,-3.916,0.3706,0.6457,0.8275,0.5197,0.3811,1,1
25081,338,397,410,288,258,7.214,1.336,-4.756,0.3595,0.6457,0.8194,0.5085,0.3871,1,1
25102,336,395,410,287,256,9.550,6.466,-5.290,0.3483,0.6396,0.8194,0.5028,0.3752,1,1
25123,337,395,408,287,257,5.924,9.244,-5.069,0.3539,0.6396,0.8114,0.5028,0.3811,1,1
25140,336,394,408,286,255,7.191,8.130,-5.137,0.3483,0.6365,0.8114,0.4972,0.3692,1,1
25162,336,391,407,285,255,8.351,1.298,-5.603,0.3483,0.6274,0.8073,0.4916,0.3692,1,1
25182,334,389,406,282,253,8.038,0.588,-8.015,0.3372,0.6214,0.8033,0.4747,0.3573,1,1
25203,333,388,405,282,253,6.145,3.092,-9.084,0.3316,0.6183,0.7993,0.4747,0.3573,1,1
25220,334,388,405,281,253,8.550,5.107,-8.122,0.3372,0.6183,0.7993,0.4691,0.3573,1,1
25242,334,387,404,280,252,9.008,4.023,-8.122,0.3372,0.6153,0.7953,0.4635,0.3513,1,1
25262,332,387,404,280,252,7.534,3.870,-8.061,0.3260,0.6153,0.7953,0.4635,0.3513,1,1
25283,331,386,404,280,253,5.145,4.008,-7.847,0.3204,0.6122,0.7953,0.4635,0.3573,1,1
25300,333,386,403,280,253,5.870,4.977,-6.939,0.3316,0.6122,0.7912,0.4635,0.3573,1,1
25322,330,386,404,280,252,7.550,5.374,-5.893,0.3149,0.6122,0.7953,0.4635,0.3513,1,1
25342,331,385,404,280,252,8.855,5.527,-5.542,0.3204,0.6092,0.7953,0.4635,0.3513,1,1
25362,329,386,403,281,253,9.557,2.450,-4.550,0.3093,0.6122,0.7912,0.4691,0.3573,1,1
25380,329,384,403,279,253,10.260,-0.786,-3.496,0.3093,0.6062,0.7912,0.4578,0.3573,1,1
25401,330,384,402,279,253,11.710,0.641,-3.275,0.3149,0.6062,0.7872,0.4578,0.3573,1,1
25422,331,385,403,280,251,9.733,-0.573,-2.603,0.3204,0.6092,0.7912,0.4635,0.3454,1,1
25442,330,386,402,278,250,11.466,-0.611,-1.382,0.3149,0.6122,0.7872,0.4522,0.3394,1,1
25460,330,385,401,279,252,8.817,1.427,-1.710,0.3149,0.6092,0.7832,0.4578,0.3513,1,1
25481,330,384,402,278,250,7.038,-4.008,-1.511,0.3149,0.6062,0.7872,0.4522,0.3394,1,1
25502,328,382,400,277,250,9.389,-3.267,-1.389,0.3037,0.6001,0.7792,0.4466,0.3394,1,1
25522,328,381,400,277,250,13.473,-1.489,-3.321,0.3037,0.5971,0.7792,0.4466,0.3394,1,1
25543,329,382,399,276,251,11.015,-0.634,-3.748,0.3093,0.6001,0.7751,0.4409,0.3454,1,1
25561,329,382,397,276,250,11.313,-1.015,-4.504,0.3093,0.6001,0.7671,0.4409,0.3394,1,0
25582,328,381,397,276,250,9.473,-3.931,-6.351,0.3037,0.5971,0.7671,0.4409,0.3394,1,0
25602,327,381,396,275,249,12.481,-1.260,-7.687,0.2981,0.5971,0.7630,0.4353,0.3335,1,0
25623,326,379,396,274,248,11.779,-0.969,-8.366,0.2925,0.5910,0.7630,0.4297,0.3275,1,0
25640,328,380,396,275,248,11.931,1.000,-9.397,0.3037,0.5940,0.7630,0.4353,0.3275,1,0
25661,328,381,396,275,248,8.145,1.878,-10.168,0.3037,0.5971,0.7630,0.4353,0.3275,1,0
25682,326,380,395,274,247,9.153,0.939,-10.076,0.2925,0.5940,0.7590,0.4297,0.3216,1,0
25702,329,379,394,274,249,11.931,1.664,-10.870,0.3093,0.5910,0.7550,0.4297,0.3335,1,0
25720,328,379,395,274,248,12.069,2.641,-11.344,0.3037,0.5910,0.7590,0.4297,0.3275,1,0
25741,326,378,393,273,248,7.336,3.206,-11.336,0.2925,0.5879,0.7510,0.4241,0.3275,1,0
25762,329,378,393,274,247,6.519,2.588,-9.542,0.3093,0.5879,0.7510,0.4297,0.3216,1,0
25782,327,379,393,274,248,6.542,2.267,-7.168,0.2981,0.5910,0.7510,0.4297,0.3275,1,0
25800,327,379,393,274,248,8.191,2.916,-5.382,0.2981,0.5910,0.7510,0.4297,0.3275,1,0
25821,324,380,393,274,248,8.092,2.718,-3.252,0.2814,0.5940,0.7510,0.4297,0.3275,1,0
25842,326,380,393,275,247,9.298,2.282,-1.702,0.2925,0.5940,0.7510,0.4353,0.3216,1,0
25862,328,383,392,272,247,11.702,-1.718,-1.221,0.3037,0.6031,0.7469,0.4184,0.3216,1,0
25883,326,380,392,273,247,13.061,-3.924,-1.511,0.2925,0.5940,0.7469,0.4241,0.3216,1,0
25900,325,378,391,272,246,14.473,-1.908,-2.229,0.2870,0.5879,0.7429,0.4184,0.3156,1,0
25922,324,379,392,273,247,13.542,1.550,-4.382,0.2814,0.5910,0.7469,0.4241,0.3216,1,0
25942,326,380,392,272,247,11.260,5.267,-4.550,0.2925,0.5940,0.7469,0.4184,0.3216,1,0
25963,323,379,390,272,247,4.527,7.763,-6.046,0.2758,0.5910,0.7389,0.4184,0.3216,1,0
25980,324,380,390,272,247,2.183,9.710,-6.099,0.2814,0.5940,0.7389,0.4184,0.3216,1,0
26001,325,380,389,273,246,4.992,11.504,-5.740,0.2870,0.5940,0.7349,0.4241,0.3156,1,0
26022,325,379,389,272,247,9.542,9.099,-4.489,0.2870,0.5910,0.7349,0.4184,0.3216,1,0
26042,325,379,389,273,246,9.939,7.115,-3.740,0.2870,0.5910,0.7349,0.4241,0.3156,1,0
26060,324,380,389,273,247,7.656,5.107,-3.466,0.2814,0.5940,0.7349,0.4241,0.3216,1,0
26081,325,379,389,272,246,4.542,4.794,-1.305,0.2870,0.5910,0.7349,0.4184,0.3156,1,0
26102,324,377,388,271,245,3.351,4.008,0.366,0.2814,0.5849,0.7308,0.4128,0.3097,1,0
26122,324,377,388,272,244,4.947,6.191,0.901,0.2814,0.5849,0.7308,0.4184,0.3037,1,0
26140,322,375,388,272,246,5.260,6.260,0.282,0.2702,0.5788,0.7308,0.4184,0.3156,1,0
26161,323,377,388,271,245,4.565,7.061,-1.382,0.2758,0.5849,0.7308,0.4128,0.3097,1,0
26182,323,376,387,271,245,-2.573,10.557,-1.557,0.2758,0.5819,0.7268,0.4128,0.3097,1,0
26202,323,378,389,270,245,-13.702,15.260,0.069,0.2758,0.5879,0.7349,0.4072,0.3097,1,0
26223,323,378,388,271,244,-15.771,16.847,0.878,0.2758,0.5879,0.7308,0.4128,0.3037,1,0
26240,325,379,387,271,245,-8.412,15.641,1.420,0.2870,0.5910,0.7268,0.4128,0.3097,1,0
26262,321,379,388,270,245,-5.992,16.977,3.450,0.2647,0.5910,0.7308,0.4072,0.3097,1,0
26282,323,381,387,270,244,-9.298,21.908,7.229,0.2758,0.5971,0.7268,0.4072,0.3037,1,0
26303,324,381,387,268,244,-18.573,26.061,10.076,0.2814,0.5971,0.7268,0.3959,0.3037,1,0
26320,321,382,388,269,244,-32.176,29.519,13.145,0.2647,0.6001,0.7308,0.4016,0.3037,1,0
26341,321,383,388,268,245,-46.519,39.725,18.023,0.2647,0.6031,0.7308,0.3959,0.3097,1,0
26362,322,387,387,268,245,-66.244,48.809,23.046,0.2702,0.6153,0.7268,0.3959,0.3097,1,0
26382,323,389,388,268,244,-82.053,59.458,25.496,0.2758,0.6214,0.7308,0.3959,0.3037,1,0
26400,323,392,388,266,243,-77.153,68.809,29.160,0.2758,0.6305,0.7308,0.3847,0.2977,1,0
26421,317,391,387,266,243,-59.863,80.985,30.374,0.2424,0.6274,0.7268,0.3847,0.2977,1,0
26442,318,396,386,264,242,-47.985,86.450,33.191,0.2479,0.6426,0.7228,0.3734,0.2918,1,0
26462,316,398,384,263,242,-33.863,96.168,33.252,0.2368,0.6487,0.7147,0.3678,0.2918,1,0
26483,313,400,385,261,240,-52.198,117.672,36.275,0.2200,0.6548,0.7188,0.3566,0.2799,1,0
26501,309,405,384,258,239,-78.405,80.160,26.267,0.1977,0.6700,0.7147,0.3397,0.2739,1,0
26522,306,414,379,255,237,-45.053,91.176,38.145,0.1810,0.6973,0.6946,0.3228,0.2620,1,0
26542,302,419,372,253,234,-16.214,83.031,30.695,0.1587,0.7125,0.6664,0.3115,0.2441,1,0
26563,300,421,365,250,231,-11.115,92.443,38.611,0.1475,0.7186,0.6382,0.2947,0.2263,1,0
26580,298,419,359,247,227,-3.450,77.290,29.313,0.1364,0.7125,0.6140,0.2778,0.2025,1,0
26602,295,415,351,244,226,11.947,73.496,34.656,0.1197,0.7003,0.5818,0.2609,0.1965,1,0
26622,295,412,344,245,225,18.061,62.611,34.374,0.1197,0.6912,0.5536,0.2665,0.1905,1,0
26642,291,407,335,241,225,20.298,54.382,35.244,0.0973,0.6760,0.5174,0.2440,0.1905,1,0
26660,291,403,331,239,223,23.817,50.382,35.733,0.0973,0.6639,0.5013,0.2328,0.1786,1,0
26680,289,399,325,238,221,23.321,45.252,33.382,0.0862,0.6517,0.4771,0.2271,0.1667,1,0
26702,288,398,320,237,221,14.137,39.015,32.809,0.0806,0.6487,0.4570,0.2215,0.1667,1,0
26722,287,395,318,236,220,7.656,31.260,31.679,0.0750,0.6396,0.4489,0.2159,0.1608,1,0
26743,287,391,316,236,221,2.527,28.015,27.748,0.0750,0.6274,0.4409,0.2159,0.1667,1,0
26760,287,388,315,236,221,-0.397,30.954,24.992,0.0750,0.6183,0.4369,0.2159,0.1667,1,0
26781,285,386,314,235,221,-0.893,35.817,22.069,0.0639,0.6122,0.4328,0.2103,0.1667,1,0
26802,286,384,313,235,220,3.313,41.305,17.229,0.0695,0.6062,0.4288,0.2103,0.1608,1,0
26823,285,383,313,234,221,11.618,43.481,14.626,0.0639,0.6031,0.4288,0.2046,0.1667,1,0
26840,284,384,313,235,219,17.855,42.366,14.076,0.0583,0.6062,0.4288,0.2103,0.1548,1,0
26861,282,382,311,233,220,15.183,40.794,14.397,0.0472,0.6001,0.4207,0.1990,0.1608,1,0
26881,283,383,312,234,220,8.244,40.824,13.740,0.0527,0.6031,0.4248,0.2046,0.1608,1,0
26903,283,384,312,234,221,9.817,40.214,11.260,0.0527,0.6062,0.4248,0.2046,0.1667,1,0
26923,282,383,311,234,222,13.878,36.046,8.954,0.0472,0.6031,0.4207,0.2046,0.1727,1,0
26940,281,382,311,233,221,14.214,32.855,11.137,0.0416,0.6001,0.4207,0.1990,0.1667,1,0
26961,281,383,311,234,221,14.122,30.969,14.718,0.0416,0.6031,0.4207,0.2046,0.1667,1,0
26981,282,383,310,234,221,14.046,29.389,14.420,0.0472,0.6031,0.4167,0.2046,0.1667,1,0
27003,280,383,310,234,222,12.924,25.794,12.168,0.0360,0.6031,0.4167,0.2046,0.1727,1,0
27020,281,383,309,233,221,13.649,22.527,12.061,0.0416,0.6031,0.4127,0.1990,0.1667,1,0
27041,282,382,308,232,220,13.580,19.405,13.008,0.0472,0.6001,0.4087,0.1934,0.1608,1,0
27061,281,382,308,232,220,15.038,17.107,11.687,0.0416,0.6001,0.4087,0.1934,0.1608,1,0
27082,281,380,307,232,221,16.679,13.908,6.710,0.0416,0.5940,0.4046,0.1934,0.1667,1,0
27103,280,379,309,233,220,15.580,8.252,2.298,0.0360,0.5910,0.4127,0.1990,0.1608,1,0
27121,281,380,308,231,219,11.855,6.252,1.504,0.0416,0.5940,0.4087,0.1878,0.1548,1,0
27141,281,380,309,233,220,9.626,6.084,1.649,0.0416,0.5940,0.4127,0.1990,0.1608,1,0
27162,279,379,309,232,221,9.992,5.954,-0.672,0.0304,0.5910,0.4127,0.1934,0.1667,1,0
27182,280,379,308,232,220,9.626,4.550,-3.939,0.0360,0.5910,0.4087,0.1934,0.1608,1,0
27201,279,377,307,233,220,7.985,3.832,-4.489,0.0304,0.5849,0.4046,0.1990,0.1608,1,0
27221,280,376,308,233,219,8.443,6.084,-1.672,0.0360,0.5819,0.4087,0.1990,0.1548,1,0
27242,279,375,308,233,218,14.046,9.443,1.412,0.0304,0.5788,0.4087,0.1990,0.1489,1,0
27262,278,374,307,232,221,18.191,10.626,1.214,0.0248,0.5758,0.4046,0.1934,0.1667,1,0
27282,278,374,306,231,221,17.260,9.336,1.496,0.0248,0.5758,0.4006,0.1878,0.1667,1,0
27301,278,375,306,232,221,14.611,7.153,2.389,0.0248,0.5788,0.4006,0.1934,0.1667,1,0
27321,282,373,305,231,221,13.626,8.420,4.221,0.0472,0.5727,0.3966,0.1878,0.1667,1,0
27342,279,373,306,231,221,14.351,10.771,4.023,0.0304,0.5727,0.4006,0.1878,0.1667,1,0
27362,281,374,307,232,220,14.786,11.267,2.122,0.0416,0.5758,0.4046,0.1934,0.1608,1,0
27380,279,373,306,232,220,13.137,10.031,1.756,0.0304,0.5727,0.4006,0.1934,0.1608,1,0
27401,280,373,305,231,221,10.863,7.313,2.115,0.0360,0.5727,0.3966,0.1878,0.1667,1,0
27422,280,373,305,231,222,11.153,6.779,1.855,0.0360,0.5727,0.3966,0.1878,0.1727,1,0
27442,279,372,306,233,221,13.214,6.122,1.573,0.0304,0.5697,0.4006,0.1990,0.1667,1,0
27463,279,371,305,233,222,13.977,4.038,-0.061,0.0304,0.5667,0.3966,0.1990,0.1727,1,0
27480,281,372,305,233,220,11.489,1.611,-0.908,0.0416,0.5697,0.3966,0.1990,0.1608,1,0
27502,279,372,305,233,220,6.504,-0.389,0.954,0.0304,0.5697,0.3966,0.1990,0.1608,1,0
27522,281,373,305,231,219,10.573,-0.328,3.076,0.0416,0.5727,0.3966,0.1878,0.1548,1,0
27543,280,372,306,231,220,19.466,-1.000,1.191,0.0360,0.5697,0.4006,0.1878,0.1608,1,0
27560,277,372,306,232,221,18.855,-2.374,-0.916,0.0193,0.5697,0.4006,0.1934,0.1667,1,0
27580,277,370,305,231,220,10.634,-4.000,-2.099,0.0193,0.5636,0.3966,0.1878,0.1608,1,0
27602,279,371,306,232,220,7.031,-4.947,-3.260,0.0304,0.5667,0.4006,0.1934,0.1608,1,0
27622,279,370,305,232,220,8.916,-4.969,-5.275,0.0304,0.5636,0.3966,0.1934,0.1608,1,0
27643,281,371,305,231,221,9.183,-2.947,-7.473,0.0416,0.5667,0.3966,0.1878,0.1667,1,0
27660,281,371,305,231,219,7.626,-1.534,-7.962,0.0416,0.5667,0.3966,0.1878,0.1548,1,0
27681,279,370,305,232,220,4.427,-2.183,-7.580,0.0304,0.5636,0.3966,0.1934,0.1608,1,0
27702,278,370,306,232,221,5.351,-3.389,-6.511,0.0248,0.5636,0.4006,0.1934,0.1667,1,0
27723,279,371,305,232,220,9.542,-1.977,-5.947,0.0304,0.5667,0.3966,0.1934,0.1608,1,0
27740,278,371,305,231,220,11.969,-0.504,-6.382,0.0248,0.5667,0.3966,0.1878,0.1608,1,0
27761,280,371,305,230,219,10.710,0.305,-6.458,0.0360,0.5667,0.3966,0.1821,0.1548,1,0
27781,278,371,305,230,220,9.481,-1.252,-5.061,0.0248,0.5667,0.3966,0.1821,0.1608,1,0
27803,277,372,307,231,220,11.191,-2.634,-2.031,0.0193,0.5697,0.4046,0.1878,0.1608,1,0
27823,279,375,308,231,221,14.985,-3.206,-2.802,0.0304,0.5788,0.4087,0.1878,0.1667,1,0
27841,278,373,308,231,220,14.870,-3.359,-4.588,0.0248,0.5727,0.4087,0.1878,0.1608,1,0
27861,277,375,309,231,220,11.489,-3.870,-4.550,0.0193,0.5788,0.4127,0.1878,0.1608,1,0
27882,277,376,309,230,220,9.458,-7.450,-2.305,0.0193,0.5819,0.4127,0.1821,0.1608,1,0
27903,278,377,311,231,220,9.924,-8.679,-3.046,0.0248,0.5849,0.4207,0.1878,0.1608,1,0
27920,280,378,311,232,220,9.160,-8.168,-4.092,0.0360,0.5879,0.4207,0.1934,0.1608,1,0
27941,280,377,311,231,221,8.115,-7.756,-4.611,0.0360,0.5849,0.4207,0.1878,0.1667,1,0
27961,280,377,312,232,221,9.664,-9.664,-5.603,0.0360,0.5849,0.4248,0.1934,0.1667,1,0
27983,278,376,311,231,220,9.908,-10.878,-4.679,0.0248,0.5819,0.4207,0.1878,0.1608,1,0
28000,278,376,312,232,221,8.740,-11.099,-3.756,0.0248,0.5819,0.4248,0.1934,0.1667,1,0
28021,277,376,311,231,221,9.420,-10.611,-3.634,0.0193,0.5819,0.4207,0.1878,0.1667,1,0
28041,276,376,312,230,221,12.076,-10.473,-3.374,0.0137,0.5819,0.4248,0.1821,0.1667,1,0
28062,278,376,312,232,219,13.145,-9.847,-3.618,0.0248,0.5819,0.4248,0.1934,0.1548,1,0
28082,280,376,312,232,219,9.595,-9.412,-2.366,0.0360,0.5819,0.4248,0.1934,0.1548,1,0
28103,280,377,314,231,220,11.931,-14.252,1.198,0.0360,0.5849,0.4328,0.1878,0.1608,1,0
28120,278,382,316,233,221,19.069,-17.832,0.008,0.0248,0.6001,0.4409,0.1990,0.1667,1,0
28142,278,384,318,232,222,19.710,-19.718,-1.916,0.0248,0.6062,0.4489,0.1934,0.1727,1,0
28162,278,387,324,233,222,17.336,-24.122,-0.763,0.0248,0.6153,0.4731,0.1990,0.1727,1,0
28183,279,389,327,234,223,15.962,-28.160,-4.924,0.0304,0.6214,0.4852,0.2046,0.1786,1,0
28200,279,388,330,235,222,14.015,-28.756,-9.107,0.0304,0.6183,0.4973,0.2103,0.1727,1,0
28220,280,390,332,235,222,10.366,-29.389,-10.328,0.0360,0.6244,0.5053,0.2103,0.1727,1,0
28242,280,389,332,234,223,7.733,-32.985,-8.145,0.0360,0.6214,0.5053,0.2046,0.1786,1,0
